subject,lextale,working_memory,trial_id,type,word1,word2,word3,word4,word5,word6,word7,word8,word9,word10,word11,word12,word13,word14,word15,word16,word17,word18,word19,word20,word21,word22,word23,word24,RT1,RT2,RT3,RT4,RT5,RT6,RT7,RT8,RT9,RT10,RT11,RT12,RT13,RT14,RT15,RT16,RT17,RT18,RT19,RT20,RT21,RT22,RT23,RT24,Long_LEN,Long_VP1RT,Long_VP2RT,Short_LEN,Short_VP1RT,Short_VP2RT,VP_LEN,VP1_RT(ms),VP2_RT(ms),judgment_rt,response,is_correct,sentence,question
1,53.75,15.5,7,short,Anne,gathered,mushrooms,and,Bob,gathered,mushrooms,too,whereas,Cindy,flew,a,kite,,,,,,,,,,,,0.7514,0.6927,6.3918,0.7535,1.1942,1.537,1.0805,0.8038,0.9066,0.9512,0.8371,0.714,0.8359,,,,,,,,,,,,,,,17,7.0845,2.6175,17,7084.5,2617.5,2.6978,N,1,Anne?gathered mushrooms and?Bob?gathered mushrooms too whereas?Cindy?flew?a kite.,Bob flew a kite.
1,53.75,15.5,8,short,Anne,produced,music,and,Bob,produced,music,too,whereas,Cindy,adjusted,the,microphone,,,,,,,,,,,,1.5956,1.2179,1.1755,0.7441,1.0806,0.8516,0.7192,0.7785,0.8652,1.068,1.1842,0.5029,1.5444,,,,,,,,,,,,,,,13,2.3934,1.5708,13,2393.4,1570.8,2.8088,Y,1,Anne?produced music and?Bob?produced music too whereas?Cindy?adjusted the microphone.,Anne produced music.
1,53.75,15.5,14,short,Anne,skipped,stones,and,Bob,skipped,stones,too,while,Cindy,was,playing,tag,,,,,,,,,,,,3.2252,1.6281,3.3919,3.8783,1.2712,1.1769,0.9437,1.2074,1.4137,2.0591,0.983,1.5101,0.9274,,,,,,,,,,,,,,,13,5.02,2.1206,13,5020,2120.6,1.9134,N,1,Anne?skipped stones and?Bob?skipped stones too while?Cindy?was playing tag.,Anne was playing tag.
1,53.75,15.5,20,short,Anne,browsed,websites,and,Bob,browsed,websites,too,whereas,Cindy,washed,her,clothes,,,,,,,,,,,,0.7927,1.8468,1.6143,0.8562,1.0219,2.1462,1.2253,1.1434,0.7504,0.7762,1.0674,0.9476,1.6244,,,,,,,,,,,,,,,15,3.4611,3.3715,15,3461.1,3371.5,2.0712,N,1,Anne?browsed websites and?Bob?browsed websites too whereas?Cindy?washed?her?clothes.,Anne washed clothes.
1,53.75,15.5,23,short,Anne,climbed,mountains,and,Bob,climbed,mountains,too,whereas,Cindy,was,very,afraid,,,,,,,,,,,,0.7778,1.6054,2.5467,0.5213,0.5481,0.62,0.5788,0.7527,1.1524,1.3153,0.6752,0.6642,0.7951,,,,,,,,,,,,,,,16,4.1521,1.1988,16,4152.1,1198.8,4.7388,Y,1,Anne?climbed mountains and?Bob?climbed mountains too whereas?Cindy?was very afraid.,Bob climbed mountains.
1,53.75,15.5,25,short,Anne,celebrated,success,and,Bob,celebrated,success,too,while,Cindy,finished,the,report,,,,,,,,,,,,2.1893,1.1226,1.0618,0.528,0.5525,0.5459,0.7881,1.2743,0.5342,0.6873,0.8823,0.5019,1.4486,,,,,,,,,,,,,,,17,2.1844,1.334,17,2184.4,1334,2.0595,Y,1,Anne?celebrated success and?Bob?celebrated success too while?Cindy?finished the report.,Bob celebrated success.
1,53.75,15.5,26,short,Anne,did,experiments,and,Bob,did,experiments,too,while,Cindy,asked,for,leave,,,,,,,,,,,,0.8839,0.6773,1.7438,0.4953,0.5078,0.6081,1.7742,1.0837,0.695,0.5921,0.7681,0.4558,1.0537,,,,,,,,,,,,,,,14,2.4211,2.3823,14,2421.1,2382.3,2.7265,Y,1,Anne?did experiments and?Bob?did experiments too while?Cindy?asked for leave.,Cindy asked for leave.
1,53.75,15.5,31,short,Anne,collected,firewood,and,Bob,collected,firewood,too,whereas,Cindy,pitched,the,tent,,,,,,,,,,,,0.6033,0.9393,1.9317,0.7159,0.6528,0.7626,1.6182,0.6627,0.6512,0.7923,1.6243,1.4517,1.4726,,,,,,,,,,,,,,,17,2.871,2.3808,17,2871,2380.8,1.712,N,1,Anne?collected firewood and?Bob?collected firewood too whereas?Cindy?pitched the tent.,Anne pitched the tent.
1,53.75,15.5,35,short,Anne,sold,fruits,and,Bob,sold,fruits,too,while,Cindy,handed,out,booklets,,,,,,,,,,,,1.4099,1.4828,1.2107,0.5672,0.5685,0.4812,0.5483,0.5001,0.7515,0.8004,2.1427,0.7676,2.3506,,,,,,,,,,,,,,,10,2.6935,1.0295,10,2693.5,1029.5,2.0821,Y,1,Anne?sold?fruits?and?Bob?sold?fruits?too while?Cindy?handed out booklets.,Anne sold fruits.
1,53.75,15.5,41,short,Anne,corrected,papers,and,Bob,corrected,papers,too,whereas,Cindy,prepared,English,lessons,,,,,,,,,,,,0.6062,1.5175,0.9206,0.8487,0.7705,0.8282,0.7831,0.6362,0.6856,0.6728,0.6943,0.6235,0.6859,,,,,,,,,,,,,,,15,2.4381,1.6113,15,2438.1,1611.3,2.4733,Y,1,Anne?corrected papers and?Bob?corrected papers too whereas?Cindy?prepared English lessons.,Cindy prepared English lessons.
1,53.75,15.5,53,short,Anne,brought,wine,and,Bob,brought,wine,too,whereas,Cindy,came,empty,handed,,,,,,,,,,,,0.9792,0.8744,0.6621,0.4727,0.5658,0.6789,0.4959,0.5875,0.722,0.5475,0.8942,1.3998,1.2615,,,,,,,,,,,,,,,11,1.5365,1.1748,11,1536.5,1174.8,2.0733,N,1,Anne?brought wine and?Bob?brought wine too whereas?Cindy?came empty handed.,Cindy brought wine.
1,53.75,15.5,55,short,Anne,studied,medicine,and,Bob,studied,medicine,too,whereas,Cindy,became,an,actress,,,,,,,,,,,,0.5507,1.0695,0.7617,1.129,0.7472,0.5606,0.6737,0.4874,0.6029,0.5584,0.6314,0.4692,1.3549,,,,,,,,,,,,,,,15,1.8312,1.2343,15,1831.2,1234.3,1.8167,N,1,Anne?studied medicine and?Bob?studied medicine too whereas?Cindy?became an actress.,Anne became an actress.
1,53.75,15.5,56,short,Anne,was,late,and,Bob,was,late,too,while,Cindy,asked,for,leave,,,,,,,,,,,,0.4558,0.8068,1.2443,0.4479,0.6141,0.5236,0.5261,0.4812,0.6342,1.1773,0.5921,0.3915,0.567,,,,,,,,,,,,,,,7,2.0511,1.0497,7,2051.1,1049.7,1.5666,Y,1,Anne?was late and?Bob?was late too while?Cindy?asked for leave.,Bob was late.
1,53.75,15.5,57,short,Anne,practised,yoga,and,Bob,practised,yoga,too,while,Cindy,was,lifting,weights,,,,,,,,,,,,0.7939,1.6706,1.2102,0.7682,0.5678,1.6468,0.6502,0.6636,1.823,0.7842,0.5599,0.8879,0.8671,,,,,,,,,,,,,,,13,2.8808,2.297,13,2880.8,2297,2.1596,N,1,Anne?practised yoga and?Bob?practised yoga too while?Cindy?was lifting weights.,Cindy practised yoga.
1,53.75,15.5,63,short,Anne,wrapped,gifts,and,Bob,wrapped,gifts,too,while,Cindy,decorated,the,tree,,,,,,,,,,,,0.5767,0.9292,0.7057,0.6042,0.5714,1.0994,0.6134,0.5376,0.5975,0.795,1.0693,0.9261,0.6963,,,,,,,,,,,,,,,12,1.6349,1.7128,12,1634.9,1712.8,1.7049,N,1,Anne?wrapped gifts and?Bob?wrapped gifts too while?Cindy?decorated the tree.,Bob decorated the tree.
1,53.75,15.5,68,short,Anne,met,friends,and,Bob,met,friends,too,while,Cindy,wrote,her,thesis,,,,,,,,,,,,0.3421,1.0165,0.8223,1.0604,0.5127,0.4245,0.3918,0.568,0.6236,0.5658,0.8295,0.4989,2.0467,,,,,,,,,,,,,,,10,1.8388,0.8163,10,1838.8,816.3,2.0091,Y,1,Anne?met friends and?Bob?met friends too while?Cindy?wrote?her?thesis.,Bob met friends.
2,63.75,16.5,9,short,Anne,met,friends,and,Bob,met,friends,too,while,Cindy,wrote,her,thesis,,,,,,,,,,,,0.0137,1.2501,0.479,0.3787,0.4036,0.449,0.5583,2.0635,0.5776,0.4094,0.3683,0.3434,0.3136,,,,,,,,,,,,,,,10,1.7291,1.0073,10,1729.1,1007.3,2.6023,Y,1,Anne?met friends and?Bob?met friends too while?Cindy?wrote?her?thesis.,Bob met friends.
2,63.75,16.5,14,short,Anne,wrapped,gifts,and,Bob,wrapped,gifts,too,while,Cindy,decorated,the,tree,,,,,,,,,,,,0.2578,2.2546,0.6648,1.0857,1.985,0.6063,0.4056,0.3965,0.4105,0.5454,0.6415,0.352,0.6012,,,,,,,,,,,,,,,12,2.9194,1.0119,12,2919.4,1011.9,2.0238,N,1,Anne?wrapped gifts and?Bob?wrapped gifts too while?Cindy?decorated the tree.,Bob decorated the tree.
2,63.75,16.5,20,short,Anne,practised,yoga,and,Bob,practised,yoga,too,while,Cindy,was,lifting,weights,,,,,,,,,,,,0.3798,0.7786,0.9342,0.4108,0.8415,0.4079,0.4371,0.3869,1.2028,0.344,0.3372,0.3875,3.715,,,,,,,,,,,,,,,13,1.7128,0.845,13,1712.8,845,3.2574,N,1,Anne?practised yoga and?Bob?practised yoga too while?Cindy?was lifting weights.,Cindy practised yoga.
2,63.75,16.5,21,short,Anne,was,late,and,Bob,was,late,too,while,Cindy,asked,for,leave,,,,,,,,,,,,0.4566,0.3476,2.2827,0.942,0.3918,0.3914,0.4149,0.4594,0.4418,0.4473,0.3478,0.3724,0.3485,,,,,,,,,,,,,,,7,2.6303,0.8063,7,2630.3,806.3,2.782,Y,1,Anne?was late and?Bob?was late too while?Cindy?asked for leave.,Bob was late.
2,63.75,16.5,22,short,Anne,studied,medicine,and,Bob,studied,medicine,too,whereas,Cindy,became,an,actress,,,,,,,,,,,,0.4392,0.4915,0.3689,0.3834,0.5037,0.3303,0.3388,0.3342,0.3598,0.313,0.3466,0.3555,3.9408,,,,,,,,,,,,,,,15,0.8604,0.6691,15,860.4,669.1,10.3872,N,1,Anne?studied medicine and?Bob?studied medicine too whereas?Cindy?became an actress.,Anne became an actress.
2,63.75,16.5,24,short,Anne,brought,wine,and,Bob,brought,wine,too,whereas,Cindy,came,empty,handed,,,,,,,,,,,,0.2776,0.4707,0.6124,0.3221,0.3482,0.3398,0.4714,1.1467,0.9062,0.4059,0.3577,0.5107,0.6951,,,,,,,,,,,,,,,11,1.0831,0.8112,11,1083.1,811.2,4.4412,N,1,Anne?brought wine and?Bob?brought wine too whereas?Cindy?came empty handed.,Cindy brought wine.
2,63.75,16.5,36,short,Anne,corrected,papers,and,Bob,corrected,papers,too,whereas,Cindy,prepared,English,lessons,,,,,,,,,,,,0.2566,1.1269,0.6171,0.8162,0.4858,0.8332,0.583,0.4059,0.5255,0.3763,0.5122,0.6895,1.4213,,,,,,,,,,,,,,,15,1.744,1.4162,15,1744,1416.2,6.9781,Y,1,Anne?corrected papers and?Bob?corrected papers too whereas?Cindy?prepared English lessons.,Cindy prepared English lessons.
2,63.75,16.5,42,short,Anne,sold,fruits,and,Bob,sold,fruits,too,while,Cindy,handed,out,booklets,,,,,,,,,,,,0.5956,1.4084,1.8715,3.297,1.156,0.5302,0.4038,0.682,3.0696,0.5034,0.8591,0.7675,8.5595,,,,,,,,,,,,,,,10,3.2799,0.934,10,3279.9,934,3.0159,Y,1,Anne?sold?fruits?and?Bob?sold?fruits?too while?Cindy?handed out booklets.,Anne sold fluits.
2,63.75,16.5,46,short,Anne,collected,firewood,and,Bob,collected,firewood,too,whereas,Cindy,pitched,the,tent,,,,,,,,,,,,0.3661,0.521,1.4334,0.4303,0.3318,0.4044,0.3253,0.3194,0.2964,1.2935,6.295,0.6048,3.2501,,,,,,,,,,,,,,,17,1.9544,0.7297,17,1954.4,729.7,12.5268,N,1,Anne?collected firewood and?Bob?collected firewood too whereas?Cindy?pitched the tent.,Anne pitched the tent.
2,63.75,16.5,51,short,Anne,did,experiments,and,Bob,did,experiments,too,while,Cindy,asked,for,leave,,,,,,,,,,,,0.4289,0.2745,0.4393,0.3885,0.4432,0.4971,0.9637,0.3546,0.3726,0.3104,0.2966,0.3144,0.2853,,,,,,,,,,,,,,,14,0.7138,1.4608,14,713.8,1460.8,1.9212,Y,1,Anne?did experiments and?Bob?did experiments too while?Cindy?asked for leave.,Cindy asked for leave.
2,63.75,16.5,52,short,Anne,celebrated,success,and,Bob,celebrated,success,too,while,Cindy,finished,the,report,,,,,,,,,,,,0.42,0.3623,2.0662,0.3821,0.4527,0.8906,0.3104,0.5202,0.3628,0.6269,0.6321,0.468,5.6894,,,,,,,,,,,,,,,17,2.4285,1.201,17,2428.5,1201,4.9188,Y,1,Anne?celebrated success and?Bob?celebrated success too while?Cindy?finished the report.,Bob celebrated success.
2,63.75,16.5,54,short,Anne,climbed,mountains,and,Bob,climbed,mountains,too,whereas,Cindy,was,very,afraid,,,,,,,,,,,,0.3591,0.3775,0.2733,0.3329,0.3018,0.2809,0.2606,0.3375,0.2911,0.3509,0.4468,0.3004,0.3202,,,,,,,,,,,,,,,16,0.6508,0.5415,16,650.8,541.5,3.2639,Y,1,Anne?climbed mountains and?Bob?climbed mountains too whereas?Cindy?was very afraid.,Bob climbed mountains.
2,63.75,16.5,57,short,Anne,browsed,websites,and,Bob,browsed,websites,too,whereas,Cindy,washed,her,clothes,,,,,,,,,,,,0.4246,0.5194,1.8409,0.597,0.4761,1.8408,0.5245,0.3109,0.7684,0.5843,0.376,0.337,0.2897,,,,,,,,,,,,,,,15,2.3603,2.3653,15,2360.3,2365.3,2.0366,N,1,Anne?browsed websites and?Bob?browsed websites too whereas?Cindy?washed?her?clothes.,Anne washed clothes.
2,63.75,16.5,63,short,Anne,skipped,stones,and,Bob,skipped,stones,too,while,Cindy,was,playing,tag,,,,,,,,,,,,0.4656,11.3979,0.8589,0.4006,0.3966,0.7497,0.4127,0.4278,0.4342,0.3908,0.6484,0.9878,7.6987,,,,,,,,,,,,,,,13,12.2568,1.1624,13,12256.8,1162.4,2.743,N,1,Anne?skipped stones and?Bob?skipped stones too while?Cindy?was playing tag.,Anne was playing tag.
2,63.75,16.5,69,short,Anne,produced,music,and,Bob,produced,music,too,whereas,Cindy,adjusted,the,microphone,,,,,,,,,,,,0.4121,0.3791,1.1863,0.3617,0.3537,0.6582,0.3112,0.3939,0.6554,0.2762,0.3103,0.3945,2.0484,,,,,,,,,,,,,,,13,1.5654,0.9694,13,1565.4,969.4,1.3807,Y,1,Anne?produced music and?Bob?produced music too whereas?Cindy?adjusted the microphone.,Anne produced music.
2,63.75,16.5,70,short,Anne,gathered,mushrooms,and,Bob,gathered,mushrooms,too,whereas,Cindy,flew,a,kite,,,,,,,,,,,,0.2778,0.2995,0.3911,0.7888,0.7373,0.9428,0.3836,0.383,0.3894,0.334,0.6603,0.5951,1.2822,,,,,,,,,,,,,,,17,0.6906,1.3264,17,690.6,1326.4,4.4447,N,1,Anne?gathered mushrooms and?Bob?gathered mushrooms too whereas?Cindy?flew?a kite.,Bob flew a kite.
3,75,17,7,short,Anne,gathered,mushrooms,and,Bob,gathered,mushrooms,too,whereas,Cindy,flew,a,kite,,,,,,,,,,,,0.9116,0.5364,0.7171,0.4365,0.4236,0.4825,0.4842,0.3806,0.5121,0.4622,0.3968,0.571,0.5744,,,,,,,,,,,,,,,17,1.2535,0.9667,17,1253.5,966.7,1.5276,N,1,Anne?gathered mushrooms and?Bob?gathered mushrooms too whereas?Cindy?flew?a kite.,Bob flew a kite.
3,75,17,8,short,Anne,produced,music,and,Bob,produced,music,too,whereas,Cindy,adjusted,the,microphone,,,,,,,,,,,,1.0976,0.687,0.5332,0.4923,0.4937,0.4867,0.4245,0.3856,0.5446,0.4112,0.4534,0.5162,0.7671,,,,,,,,,,,,,,,13,1.2202,0.9112,13,1220.2,911.2,3.1316,Y,1,Anne?produced music and?Bob?produced music too whereas?Cindy?adjusted the microphone.,Anne produced music.
3,75,17,14,short,Anne,skipped,stones,and,Bob,skipped,stones,too,while,Cindy,was,playing,tag,,,,,,,,,,,,0.6827,0.5734,0.6139,0.5416,0.5364,0.4441,0.512,0.4171,0.4795,0.4485,0.4423,0.5704,0.4799,,,,,,,,,,,,,,,13,1.1873,0.9561,13,1187.3,956.1,2.1396,N,1,Anne?skipped stones and?Bob?skipped stones too while?Cindy?was playing tag.,Anne was playing tag.
3,75,17,20,short,Anne,browsed,websites,and,Bob,browsed,websites,too,whereas,Cindy,washed,her,clothes,,,,,,,,,,,,1.6308,0.9347,0.7113,0.5856,0.4917,0.4792,0.4267,0.4214,0.491,0.3761,0.5087,0.3954,0.3884,,,,,,,,,,,,,,,15,1.646,0.9059,15,1646,905.9,1.637,N,1,Anne?browsed websites and?Bob?browsed websites too whereas?Cindy?washed?her?clothes.,Anne washed clothes.
3,75,17,23,short,Anne,climbed,mountains,and,Bob,climbed,mountains,too,whereas,Cindy,was,very,afraid,,,,,,,,,,,,0.957,0.5857,0.5185,0.4633,0.4916,0.4886,0.4479,0.3903,0.5314,0.3947,0.3616,0.3961,0.3622,,,,,,,,,,,,,,,16,1.1042,0.9365,16,1104.2,936.5,1.9492,Y,1,Anne?climbed mountains and?Bob?climbed mountains too whereas?Cindy?was very afraid.,Bob climbed mountains.
3,75,17,25,short,Anne,celebrated,success,and,Bob,celebrated,success,too,while,Cindy,finished,the,report,,,,,,,,,,,,1.4908,0.6346,0.548,0.9154,0.4578,0.4623,0.4934,0.3715,0.5192,0.4857,0.5077,0.5889,0.615,,,,,,,,,,,,,,,17,1.1826,0.9557,17,1182.6,955.7,2.617,Y,1,Anne?celebrated success and?Bob?celebrated success too while?Cindy?finished the report.,Bob celebrated success.
3,75,17,26,short,Anne,did,experiments,and,Bob,did,experiments,too,while,Cindy,asked,for,leave,,,,,,,,,,,,4.656,0.8895,0.5522,0.3469,0.4459,0.439,0.3937,0.5785,0.5809,0.5601,0.5073,0.436,0.424,,,,,,,,,,,,,,,14,1.4417,0.8327,14,1441.7,832.7,2.0393,Y,1,Anne?did experiments and?Bob?did experiments too while?Cindy?asked for leave.,Cindy asked for leave.
3,75,17,31,short,Anne,collected,firewood,and,Bob,collected,firewood,too,whereas,Cindy,pitched,the,tent,,,,,,,,,,,,3.0655,0.659,0.9805,0.4505,0.4473,0.3958,0.3068,0.3888,0.5214,0.4644,0.2929,0.4451,0.3681,,,,,,,,,,,,,,,17,1.6395,0.7026,17,1639.5,702.6,2.1811,N,1,Anne?collected firewood and?Bob?collected firewood too whereas?Cindy?pitched the tent.,Anne pitched the tent.
3,75,17,35,short,Anne,sold,fruits,and,Bob,sold,fruits,too,while,Cindy,handed,out,booklets,,,,,,,,,,,,6.5151,0.5559,0.541,0.4464,0.4053,0.3088,0.5446,0.2911,0.4458,0.3455,0.5052,0.3778,0.3307,,,,,,,,,,,,,,,10,1.0969,0.8534,10,1096.9,853.4,20.6445,Y,1,Anne?sold?fruits?and?Bob?sold?fruits?too while?Cindy?handed out booklets.,Anne sold fluits.
3,75,17,41,short,Anne,corrected,papers,and,Bob,corrected,papers,too,whereas,Cindy,prepared,English,lessons,,,,,,,,,,,,2.5442,0.8134,0.615,0.4771,0.5457,0.5326,0.3855,0.3526,0.5279,0.4024,0.5721,0.3804,0.4493,,,,,,,,,,,,,,,15,1.4284,0.9181,15,1428.4,918.1,2.0783,Y,1,Anne?corrected papers and?Bob?corrected papers too whereas?Cindy?prepared English lessons.,Cindy prepared English lessons.
3,75,17,53,short,Anne,brought,wine,and,Bob,brought,wine,too,whereas,Cindy,came,empty,handed,,,,,,,,,,,,2.0607,1.0257,0.5843,0.5869,0.3603,0.5572,0.4019,0.3602,0.4552,0.3674,0.534,0.3446,0.5129,,,,,,,,,,,,,,,11,1.61,0.9591,11,1610,959.1,1.9022,N,1,Anne?brought wine and?Bob?brought wine too whereas?Cindy?came empty handed.,Cindy brought wine.
3,75,17,55,short,Anne,studied,medicine,and,Bob,studied,medicine,too,whereas,Cindy,became,an,actress,,,,,,,,,,,,2.4656,0.5015,0.8077,0.4963,0.3769,0.5878,0.4185,0.4852,0.5393,0.3447,0.5158,0.4098,0.3512,,,,,,,,,,,,,,,15,1.3092,1.0063,15,1309.2,1006.3,1.7208,N,1,Anne?studied medicine and?Bob?studied medicine too whereas?Cindy?became an actress.,Anne became an actress.
3,75,17,56,short,Anne,was,late,and,Bob,was,late,too,while,Cindy,asked,for,leave,,,,,,,,,,,,0.4938,0.3589,0.4028,0.3838,0.3667,0.3558,0.378,0.3754,0.4017,0.4376,0.3692,0.4066,0.358,,,,,,,,,,,,,,,7,0.7617,0.7338,7,761.7,733.8,2.3442,Y,1,Anne?was late and?Bob?was late too while?Cindy?asked for leave.,Bob was late.
3,75,17,57,short,Anne,practised,yoga,and,Bob,practised,yoga,too,while,Cindy,was,lifting,weights,,,,,,,,,,,,0.4346,0.66,0.8693,0.3198,0.4513,0.6356,0.4419,0.3588,0.3674,0.3231,0.2577,0.3298,0.3771,,,,,,,,,,,,,,,13,1.5293,1.0775,13,1529.3,1077.5,3.0257,N,1,Anne?practised yoga and?Bob?practised yoga too while?Cindy?was lifting weights.,Cindy practised yoga.
3,75,17,63,short,Anne,wrapped,gifts,and,Bob,wrapped,gifts,too,while,Cindy,decorated,the,tree,,,,,,,,,,,,0.7394,0.4091,0.5532,0.3665,0.3439,0.5185,0.3232,0.3931,0.2357,0.4047,0.4444,0.3735,0.3392,,,,,,,,,,,,,,,12,0.9623,0.8417,12,962.3,841.7,6.8741,N,1,Anne?wrapped gifts and?Bob?wrapped gifts too while?Cindy?decorated the tree.,Bob decorated the tree.
3,75,17,68,short,Anne,met,friends,and,Bob,met,friends,too,while,Cindy,wrote,her,thesis,,,,,,,,,,,,0.7091,0.4311,0.3591,0.3616,0.3895,0.3249,0.3078,0.3165,0.3263,0.3803,0.3647,0.3542,0.3619,,,,,,,,,,,,,,,10,0.7902,0.6327,10,790.2,632.7,2.1011,Y,1,Anne?met friends and?Bob?met friends too while?Cindy?wrote?her?thesis.,Bob met friends.
4,56.25,17.5,9,short,Anne,met,friends,and,Bob,met,friends,too,while,Cindy,wrote,her,thesis,,,,,,,,,,,,0.1395,0.349,0.7496,0.5268,0.7452,0.3927,0.7046,0.4426,0.9172,0.6092,1.8402,0.6281,1.9451,,,,,,,,,,,,,,,10,1.0986,1.0973,10,1098.6,1097.3,3.1665,Y,1,Anne?met friends and?Bob?met friends too while?Cindy?wrote?her?thesis.,Bob met friends.
4,56.25,17.5,14,short,Anne,wrapped,gifts,and,Bob,wrapped,gifts,too,while,Cindy,decorated,the,tree,,,,,,,,,,,,0.5236,0.3578,0.8119,0.5565,0.5006,1.0326,0.517,0.5275,0.9608,0.5529,1.2413,0.4136,0.3719,,,,,,,,,,,,,,,12,1.1697,1.5496,12,1169.7,1549.6,2.051,N,1,Anne?wrapped gifts and?Bob?wrapped gifts too while?Cindy?decorated the tree.,Bob decorated the tree.
4,56.25,17.5,20,short,Anne,practised,yoga,and,Bob,practised,yoga,too,while,Cindy,was,lifting,weights,,,,,,,,,,,,0.4212,0.3071,1.1433,0.6245,0.4458,0.9306,0.5801,0.3548,0.3322,0.3978,0.5725,1.0049,1.0196,,,,,,,,,,,,,,,13,1.4504,1.5107,13,1450.4,1510.7,2.5128,N,1,Anne?practised yoga and?Bob?practised yoga too while?Cindy?was lifting weights.,Cindy practised yoga.
4,56.25,17.5,21,short,Anne,was,late,and,Bob,was,late,too,while,Cindy,asked,for,leave,,,,,,,,,,,,0.4287,0.3942,0.9857,0.6243,0.5577,0.4721,0.3633,0.4022,0.4833,0.3979,0.7014,0.4923,0.7358,,,,,,,,,,,,,,,7,1.3799,0.8354,7,1379.9,835.4,1.5392,Y,1,Anne?was late and?Bob?was late too while?Cindy?asked for leave.,Bob was late.
4,56.25,17.5,22,short,Anne,studied,medicine,and,Bob,studied,medicine,too,whereas,Cindy,became,an,actress,,,,,,,,,,,,0.4199,0.821,1.2581,0.6609,0.4417,0.5442,0.5115,0.4751,2.0392,0.8042,0.5855,0.4412,12.159,,,,,,,,,,,,,,,15,2.0791,1.0557,15,2079.1,1055.7,2.6346,N,1,Anne?studied medicine and?Bob?studied medicine too whereas?Cindy?became an actress.,Anne became an actress.
4,56.25,17.5,24,short,Anne,brought,wine,and,Bob,brought,wine,too,whereas,Cindy,came,empty,handed,,,,,,,,,,,,0.4425,0.4328,1.5257,0.4546,0.3953,0.498,0.3257,0.3432,0.9272,0.6095,0.4333,1.062,1.6251,,,,,,,,,,,,,,,11,1.9585,0.8237,11,1958.5,823.7,4.0141,N,1,Anne?brought wine and?Bob?brought wine too whereas?Cindy?came empty handed.,Cindy brought wine.
4,56.25,17.5,36,short,Anne,corrected,papers,and,Bob,corrected,papers,too,whereas,Cindy,prepared,English,lessons,,,,,,,,,,,,0.385,0.3219,1.6018,0.6963,0.6903,1.0305,0.8667,0.4467,0.571,0.5075,0.5668,0.719,1.3526,,,,,,,,,,,,,,,15,1.9237,1.8972,15,1923.7,1897.2,4.8649,Y,1,Anne?corrected papers and?Bob?corrected papers too whereas?Cindy?prepared English lessons.,Cindy prepared English lessons.
4,56.25,17.5,42,short,Anne,sold,fruits,and,Bob,sold,fruits,too,while,Cindy,handed,out,booklets,,,,,,,,,,,,1.5109,0.354,3.7376,1.4224,0.405,0.3403,0.622,0.3149,0.3116,0.36,0.7927,0.4245,0.9912,,,,,,,,,,,,,,,10,4.0916,0.9623,10,4091.6,962.3,2.4847,Y,1,Anne?sold?fruits?and?Bob?sold?fruits?too while?Cindy?handed out booklets.,Anne sold fruits.
4,56.25,17.5,46,short,Anne,collected,firewood,and,Bob,collected,firewood,too,whereas,Cindy,pitched,the,tent,,,,,,,,,,,,0.4628,0.7955,0.9862,0.8244,0.558,0.5922,0.5522,0.3601,0.4965,0.4346,3.0163,0.5557,0.6694,,,,,,,,,,,,,,,17,1.7817,1.1444,17,1781.7,1144.4,1.7055,N,1,Anne?collected firewood and?Bob?collected firewood too whereas?Cindy?pitched the tent.,Anne pitched the tent.
4,56.25,17.5,51,short,Anne,did,experiments,and,Bob,did,experiments,too,while,Cindy,asked,for,leave,,,,,,,,,,,,1.2484,0.3323,6.6307,1.2629,0.545,0.6181,1.0732,0.3483,0.3174,0.2641,0.5161,0.6938,0.8323,,,,,,,,,,,,,,,14,6.963,1.6913,14,6963,1691.3,1.8858,Y,1,Anne?did experiments and?Bob?did experiments too while?Cindy?asked for leave.,Cindy asked for leave.
4,56.25,17.5,52,short,Anne,celebrated,success,and,Bob,celebrated,success,too,while,Cindy,finished,the,report,,,,,,,,,,,,0.5806,0.3222,0.9241,0.3825,0.3296,0.5595,0.5356,0.4004,0.4003,0.4376,0.6838,0.4795,0.5145,,,,,,,,,,,,,,,17,1.2463,1.0951,17,1246.3,1095.1,1.8692,Y,1,Anne?celebrated success and?Bob?celebrated success too while?Cindy?finished the report.,Bob celebrated success.
4,56.25,17.5,54,short,Anne,climbed,mountains,and,Bob,climbed,mountains,too,whereas,Cindy,was,very,afraid,,,,,,,,,,,,0.3357,1.1057,1.1311,0.6042,0.555,0.6034,0.8827,0.6055,0.4445,0.4489,0.3981,0.325,1.4165,,,,,,,,,,,,,,,16,2.2368,1.4861,16,2236.8,1486.1,2.2448,Y,1,Anne?climbed mountains and?Bob?climbed mountains too whereas?Cindy?was very afraid.,Bob climbed mountains.
4,56.25,17.5,57,short,Anne,browsed,websites,and,Bob,browsed,websites,too,whereas,Cindy,washed,her,clothes,,,,,,,,,,,,0.7196,0.7261,0.9682,0.4943,0.3926,0.9376,0.753,0.8986,0.6776,0.577,0.5274,0.5305,0.5229,,,,,,,,,,,,,,,15,1.6943,1.6906,15,1694.3,1690.6,1.651,N,1,Anne?browsed websites and?Bob?browsed websites too whereas?Cindy?washed?her?clothes.,Anne washed clothes.
4,56.25,17.5,63,short,Anne,skipped,stones,and,Bob,skipped,stones,too,while,Cindy,was,playing,tag,,,,,,,,,,,,0.4734,0.8713,4.2822,0.5781,0.4165,0.4153,0.4788,0.4339,0.5827,0.5099,0.5378,0.7791,0.8253,,,,,,,,,,,,,,,13,5.1535,0.8941,13,5153.5,894.1,3.1189,N,1,Anne?skipped stones and?Bob?skipped stones too while?Cindy?was playing tag.,Anne was playing tag.
4,56.25,17.5,69,short,Anne,produced,music,and,Bob,produced,music,too,whereas,Cindy,adjusted,the,microphone,,,,,,,,,,,,0.5077,1.1985,1.2358,0.9524,0.8811,0.8923,0.608,0.4461,0.8805,1.0531,0.7695,0.5311,2.0998,,,,,,,,,,,,,,,13,2.4343,1.5003,13,2434.3,1500.3,3.8536,Y,1,Anne?produced music and?Bob?produced music too whereas?Cindy?adjusted the microphone.,Anne produced music.
4,56.25,17.5,70,short,Anne,gathered,mushrooms,and,Bob,gathered,mushrooms,too,whereas,Cindy,flew,a,kite,,,,,,,,,,,,0.5376,0.705,1.2938,0.633,0.3408,0.5275,0.3933,0.3846,0.5195,0.4421,0.3763,0.4876,0.7631,,,,,,,,,,,,,,,17,1.9988,0.9208,17,1998.8,920.8,1.899,N,1,Anne?gathered mushrooms and?Bob?gathered mushrooms too whereas?Cindy?flew?a kite.,Bob flew a kite.
5,50,14,7,short,Anne,gathered,mushrooms,and,Bob,gathered,mushrooms,too,whereas,Cindy,flew,a,kite,,,,,,,,,,,,0.8149,1.8362,3.4359,0.5115,0.4701,0.6363,0.7769,0.5531,3.5859,0.6226,0.6821,0.3921,1.4223,,,,,,,,,,,,,,,17,5.2721,1.4132,17,5272.1,1413.2,1.8285,N,1,Anne?gathered mushrooms and?Bob?gathered mushrooms too whereas?Cindy?flew?a kite.,Bob flew a kite.
5,50,14,8,short,Anne,produced,music,and,Bob,produced,music,too,whereas,Cindy,adjusted,the,microphone,,,,,,,,,,,,0.7354,1.1674,0.9395,6.1635,1.1272,2.3692,0.939,0.429,0.7243,4.6624,1.9004,0.7149,1.3485,,,,,,,,,,,,,,,13,2.1069,3.3082,13,2106.9,3308.2,2.4939,Y,1,Anne?produced music and?Bob?produced music too whereas?Cindy?adjusted the microphone.,Anne produced music.
5,50,14,14,short,Anne,skipped,stones,and,Bob,skipped,stones,too,while,Cindy,was,playing,tag,,,,,,,,,,,,0.4468,0.2976,1.0775,0.2893,0.3116,0.3927,0.2893,0.3071,0.3894,0.6722,0.6667,0.4628,0.4605,,,,,,,,,,,,,,,13,1.3751,0.682,13,1375.1,682,1.776,N,1,Anne?skipped stones and?Bob?skipped stones too while?Cindy?was playing tag.,Anne was playing tag.
5,50,14,20,short,Anne,browsed,websites,and,Bob,browsed,websites,too,whereas,Cindy,washed,her,clothes,,,,,,,,,,,,0.6199,4.457,1.0085,0.5676,0.4568,0.5325,0.4481,0.3602,0.4699,0.3642,0.3413,0.5256,0.5757,,,,,,,,,,,,,,,15,5.4655,0.9806,15,5465.5,980.6,1.5063,N,1,Anne?browsed websites and?Bob?browsed websites too whereas?Cindy?washed?her?clothes.,Anne washed clothes.
5,50,14,23,short,Anne,climbed,mountains,and,Bob,climbed,mountains,too,whereas,Cindy,was,very,afraid,,,,,,,,,,,,0.158,0.575,0.3808,0.3578,0.2563,0.315,0.3035,0.4823,0.4538,0.2281,0.4176,0.3364,0.6513,,,,,,,,,,,,,,,16,0.9558,0.6185,16,955.8,618.5,1.8635,Y,1,Anne?climbed mountains and?Bob?climbed mountains too whereas?Cindy?was very afraid.,Bob climbed mountains.
5,50,14,25,short,Anne,celebrated,success,and,Bob,celebrated,success,too,while,Cindy,finished,the,report,,,,,,,,,,,,0.325,0.2711,1.1067,0.3917,1.9418,1.4639,0.4377,0.5483,0.5178,0.4246,0.862,0.412,0.5226,,,,,,,,,,,,,,,17,1.3778,1.9016,17,1377.8,1901.6,1.9083,Y,1,Anne?celebrated success and?Bob?celebrated success too while?Cindy?finished the report.,Bob celebrated success.
5,50,14,26,short,Anne,did,experiments,and,Bob,did,experiments,too,while,Cindy,asked,for,leave,,,,,,,,,,,,0.6304,4.8661,2.3126,0.4756,0.432,0.6626,0.6362,0.3223,0.3477,0.3181,0.3826,0.3684,0.64,,,,,,,,,,,,,,,14,7.1787,1.2988,14,7178.7,1298.8,1.7647,Y,1,Anne?did experiments and?Bob?did experiments too while?Cindy?asked for leave.,Cindy asked for leave.
5,50,14,31,short,Anne,collected,firewood,and,Bob,collected,firewood,too,whereas,Cindy,pitched,the,tent,,,,,,,,,,,,0.3639,0.3248,1.798,0.4627,0.4581,0.794,0.4716,0.4445,0.4784,0.2703,0.3884,0.4432,0.4163,,,,,,,,,,,,,,,17,2.1228,1.2656,17,2122.8,1265.6,1.3822,N,1,Anne?collected firewood and?Bob?collected firewood too whereas?Cindy?pitched the tent.,Anne pitched the tent.
5,50,14,35,short,Anne,sold,fruits,and,Bob,sold,fruits,too,while,Cindy,handed,out,booklets,,,,,,,,,,,,0.2523,0.6583,0.565,0.4618,0.363,0.3741,0.3881,0.3492,0.2625,0.2604,0.5122,0.3643,0.6117,,,,,,,,,,,,,,,10,1.2233,0.7622,10,1223.3,762.2,1.849,Y,1,Anne?sold?fruits?and?Bob?sold?fruits?too while?Cindy?handed out booklets.,Anne sold fruits.
5,50,14,41,short,Anne,corrected,papers,and,Bob,corrected,papers,too,whereas,Cindy,prepared,English,lessons,,,,,,,,,,,,0.2723,0.7568,1.4062,0.3317,0.3592,0.256,0.2844,0.3462,0.4426,0.3123,0.5952,0.4011,0.5284,,,,,,,,,,,,,,,15,2.163,0.5404,15,2163,540.4,2.1548,Y,1,Anne?corrected papers and?Bob?corrected papers too whereas?Cindy?prepared English lessons.,Cindy prepared English lessons.
5,50,14,53,short,Anne,brought,wine,and,Bob,brought,wine,too,whereas,Cindy,came,empty,handed,,,,,,,,,,,,0.3249,0.5096,0.4326,0.5192,0.37,0.4422,0.5029,0.3242,0.3488,0.3988,0.3824,0.5593,0.4797,,,,,,,,,,,,,,,11,0.9422,0.9451,11,942.2,945.1,2.1956,N,1,Anne?brought wine and?Bob?brought wine too whereas?Cindy?came empty handed.,Cindy brought wine.
5,50,14,55,short,Anne,studied,medicine,and,Bob,studied,medicine,too,whereas,Cindy,became,an,actress,,,,,,,,,,,,0.3162,0.695,0.3871,0.6984,0.5428,0.5352,0.3287,0.362,0.5562,0.4289,0.699,0.6859,1.8604,,,,,,,,,,,,,,,15,1.0821,0.8639,15,1082.1,863.9,1.5909,N,1,Anne?studied medicine and?Bob?studied medicine too whereas?Cindy?became an actress.,Anne became an actress.
5,50,14,56,short,Anne,was,late,and,Bob,was,late,too,while,Cindy,asked,for,leave,,,,,,,,,,,,0.0858,0.9117,0.4573,0.4399,0.5095,0.5126,0.5236,0.3649,0.3498,0.3437,0.4102,0.3373,0.3697,,,,,,,,,,,,,,,7,1.369,1.0362,7,1369,1036.2,1.802,Y,1,Anne?was late and?Bob?was late too while?Cindy?asked for leave.,Bob was late.
5,50,14,57,short,Anne,practised,yoga,and,Bob,practised,yoga,too,while,Cindy,was,lifting,weights,,,,,,,,,,,,0.3583,0.8858,0.5135,0.773,0.3493,0.4313,0.35,0.3833,0.3903,0.4632,0.4045,0.5868,0.69,,,,,,,,,,,,,,,13,1.3993,0.7813,13,1399.3,781.3,2.286,N,1,Anne?practised yoga and?Bob?practised yoga too while?Cindy?was lifting weights.,Cindy practised yoga.
5,50,14,63,short,Anne,wrapped,gifts,and,Bob,wrapped,gifts,too,while,Cindy,decorated,the,tree,,,,,,,,,,,,0.5961,0.6752,0.5844,0.4244,0.5263,0.4989,0.3559,0.3581,0.3339,0.4974,0.764,0.4223,0.3806,,,,,,,,,,,,,,,12,1.2596,0.8548,12,1259.6,854.8,1.3622,N,1,Anne?wrapped gifts and?Bob?wrapped gifts too while?Cindy?decorated the tree.,Bob decorated the tree.
5,50,14,68,short,Anne,met,friends,and,Bob,met,friends,too,while,Cindy,wrote,her,thesis,,,,,,,,,,,,0.3101,0.3629,0.6586,0.3366,0.3439,0.3806,0.5221,0.4277,0.563,0.4995,1.0155,0.565,0.4636,,,,,,,,,,,,,,,10,1.0215,0.9027,10,1021.5,902.7,2.0824,N,0,Anne?met friends and?Bob?met friends too while?Cindy?wrote?her?thesis.,Bob met friends.
6,43.75,13,9,short,Anne,met,friends,and,Bob,met,friends,too,while,Cindy,wrote,her,thesis,,,,,,,,,,,,0.1914,0.6388,0.6727,0.5198,0.7965,0.8152,0.5738,0.6027,0.5833,0.4566,0.4726,0.5234,0.5344,,,,,,,,,,,,,,,10,1.3115,1.389,10,1311.5,1389,3.1091,Y,1,Anne?met friends and?Bob?met friends too while?Cindy?wrote?her?thesis.,Bob met friends.
6,43.75,13,14,short,Anne,wrapped,gifts,and,Bob,wrapped,gifts,too,while,Cindy,decorated,the,tree,,,,,,,,,,,,0.4074,0.7238,0.6073,0.9341,0.9986,0.7819,0.8377,0.7097,0.6792,0.6423,0.9393,0.9209,1.2145,,,,,,,,,,,,,,,12,1.3311,1.6196,12,1331.1,1619.6,2.9466,Y,0,Anne?wrapped gifts and?Bob?wrapped gifts too while?Cindy?decorated the tree.,Bob decorated the tree.
6,43.75,13,20,short,Anne,practised,yoga,and,Bob,practised,yoga,too,while,Cindy,was,lifting,weights,,,,,,,,,,,,0.4978,0.6572,0.6993,0.689,0.5234,0.7178,0.839,0.6244,0.5696,0.4921,0.3643,0.4835,0.5696,,,,,,,,,,,,,,,13,1.3565,1.5568,13,1356.5,1556.8,16.1182,Y,0,Anne?practised yoga and?Bob?practised yoga too while?Cindy?was lifting weights.,Cindy practised yoga.
6,43.75,13,21,short,Anne,was,late,and,Bob,was,late,too,while,Cindy,asked,for,leave,,,,,,,,,,,,0.4125,0.3991,0.5193,0.4077,0.9827,0.4905,0.4475,0.5369,0.4733,0.3718,0.4316,0.444,1.0076,,,,,,,,,,,,,,,7,0.9184,0.938,7,918.4,938,1.7729,Y,1,Anne?was late and?Bob?was late too while?Cindy?asked for leave.,Bob was late.
6,43.75,13,22,short,Anne,studied,medicine,and,Bob,studied,medicine,too,whereas,Cindy,became,an,actress,,,,,,,,,,,,0.3642,0.5203,0.8909,0.6583,0.7528,0.6928,0.8156,0.6274,0.5974,0.5068,3.2653,0.5731,1.2208,,,,,,,,,,,,,,,15,1.4112,1.5084,15,1411.2,1508.4,2.1705,N,1,Anne?studied medicine and?Bob?studied medicine too whereas?Cindy?became an actress.,Anne became an actress.
6,43.75,13,24,short,Anne,brought,wine,and,Bob,brought,wine,too,whereas,Cindy,came,empty,handed,,,,,,,,,,,,0.4149,0.4569,0.6063,0.5067,0.5134,0.4988,0.4473,0.7134,0.492,0.4844,0.4674,0.4981,0.6356,,,,,,,,,,,,,,,11,1.0632,0.9461,11,1063.2,946.1,2.375,N,1,Anne?brought wine and?Bob?brought wine too whereas?Cindy?came empty handed.,Cindy brought wine.
6,43.75,13,36,short,Anne,corrected,papers,and,Bob,corrected,papers,too,whereas,Cindy,prepared,English,lessons,,,,,,,,,,,,0.4172,0.5296,0.5286,0.5613,0.5269,0.6916,0.4348,0.5178,0.5447,0.549,0.5368,0.4443,0.4283,,,,,,,,,,,,,,,15,1.0582,1.1264,15,1058.2,1126.4,2.2549,Y,1,Anne?corrected papers and?Bob?corrected papers too whereas?Cindy?prepared English lessons.,Cindy prepared English lessons.
6,43.75,13,42,short,Anne,sold,fruits,and,Bob,sold,fruits,too,while,Cindy,handed,out,booklets,,,,,,,,,,,,0.498,0.6156,0.6706,1.0727,0.9708,0.6342,0.439,0.4868,0.4521,0.4396,0.4774,0.4305,0.5831,,,,,,,,,,,,,,,10,1.2862,1.0732,10,1286.2,1073.2,1.7826,N,0,Anne?sold?fruits?and?Bob?sold?fruits?too while?Cindy?handed out booklets.,Anne sold fruits.
6,43.75,13,46,short,Anne,collected,firewood,and,Bob,collected,firewood,too,whereas,Cindy,pitched,the,tent,,,,,,,,,,,,0.4229,0.4824,0.5185,0.5299,0.5912,0.5338,0.7441,0.5244,0.4227,0.433,0.4109,0.535,0.495,,,,,,,,,,,,,,,17,1.0009,1.2779,17,1000.9,1277.9,2.2743,N,1,Anne?collected firewood and?Bob?collected firewood too whereas?Cindy?pitched the tent.,Anne pitched the tent.
6,43.75,13,51,short,Anne,did,experiments,and,Bob,did,experiments,too,while,Cindy,asked,for,leave,,,,,,,,,,,,0.3903,0.3416,0.6421,0.4436,0.4562,0.6598,0.3925,0.4684,0.3706,0.3692,0.3721,0.3661,0.3769,,,,,,,,,,,,,,,14,0.9837,1.0523,14,983.7,1052.3,1.718,Y,1,Anne?did experiments and?Bob?did experiments too while?Cindy?asked for leave.,Cindy asked for leave.
6,43.75,13,52,short,Anne,celebrated,success,and,Bob,celebrated,success,too,while,Cindy,finished,the,report,,,,,,,,,,,,0.3249,0.5149,1.2471,0.4309,0.3677,0.5607,0.3744,0.3659,0.3501,0.3367,0.3855,0.428,0.5828,,,,,,,,,,,,,,,17,1.762,0.9351,17,1762,935.1,1.9083,Y,1,Anne?celebrated success and?Bob?celebrated success too while?Cindy?finished the report.,Bob celebrated success.
6,43.75,13,54,short,Anne,climbed,mountains,and,Bob,climbed,mountains,too,whereas,Cindy,was,very,afraid,,,,,,,,,,,,0.3867,1.0816,2.123,0.3727,0.6888,0.5462,0.396,0.3215,0.3421,0.3808,0.3781,0.3776,0.3493,,,,,,,,,,,,,,,16,3.2046,0.9422,16,3204.6,942.2,1.6776,Y,1,Anne?climbed mountains and?Bob?climbed mountains too whereas?Cindy?was very afraid.,Bob climbed mountains.
6,43.75,13,57,short,Anne,browsed,websites,and,Bob,browsed,websites,too,whereas,Cindy,washed,her,clothes,,,,,,,,,,,,0.4186,0.2757,0.5227,0.4362,0.3627,0.5099,0.727,0.3844,0.3596,0.3628,20.4127,0.3675,0.3061,,,,,,,,,,,,,,,15,0.7984,1.2369,15,798.4,1236.9,1.9611,N,1,Anne?browsed websites and?Bob?browsed websites too whereas?Cindy?washed?her?clothes.,Anne washed clothes.
6,43.75,13,63,short,Anne,skipped,stones,and,Bob,skipped,stones,too,while,Cindy,was,playing,tag,,,,,,,,,,,,3.5663,0.3149,0.4168,0.3293,0.3419,0.3431,0.3332,0.3934,0.3391,0.2924,0.3009,0.2719,0.3199,,,,,,,,,,,,,,,13,0.7317,0.6763,13,731.7,676.3,1.6263,N,1,Anne?skipped stones and?Bob?skipped stones too while?Cindy?was playing tag.,Anne was playing tag.
6,43.75,13,69,short,Anne,produced,music,and,Bob,produced,music,too,whereas,Cindy,adjusted,the,microphone,,,,,,,,,,,,0.5206,1.0197,0.4641,0.4421,1.1745,0.6245,0.6085,0.6887,0.648,0.5735,0.572,0.5473,0.429,,,,,,,,,,,,,,,13,1.4838,1.233,13,1483.8,1233,3.3363,Y,1,Anne?produced music and?Bob?produced music too whereas?Cindy?adjusted the microphone.,Anne produced music.
6,43.75,13,70,short,Anne,gathered,mushrooms,and,Bob,gathered,mushrooms,too,whereas,Cindy,flew,a,kite,,,,,,,,,,,,0.4236,0.881,0.5667,0.4049,0.3145,0.3817,0.4418,0.4059,0.3661,0.3193,0.3136,0.4303,0.3597,,,,,,,,,,,,,,,17,1.4477,0.8235,17,1447.7,823.5,1.4907,N,1,Anne?gathered mushrooms and?Bob?gathered mushrooms too whereas?Cindy?flew?a kite.,Bob flew a kite.
7,68.75,17,7,short,Anne,gathered,mushrooms,and,Bob,gathered,mushrooms,too,whereas,Cindy,flew,a,kite,,,,,,,,,,,,0.5306,0.5393,0.379,0.4471,0.3723,0.3333,0.3522,0.6473,0.4242,0.474,0.4755,0.3063,0.2449,,,,,,,,,,,,,,,17,0.9183,0.6855,17,918.3,685.5,1.5678,N,1,Anne?gathered mushrooms and?Bob?gathered mushrooms too whereas?Cindy?flew?a kite.,Bob flew a kite.
7,68.75,17,8,short,Anne,produced,music,and,Bob,produced,music,too,whereas,Cindy,adjusted,the,microphone,,,,,,,,,,,,0.2713,0.4039,0.4301,0.3703,0.2891,0.4065,0.2732,0.359,0.3554,0.229,0.1976,0.4283,0.3612,,,,,,,,,,,,,,,13,0.834,0.6797,13,834,679.7,1.3897,N,0,Anne?produced music and?Bob?produced music too whereas?Cindy?adjusted the microphone.,Anne produced music.
7,68.75,17,14,short,Anne,skipped,stones,and,Bob,skipped,stones,too,while,Cindy,was,playing,tag,,,,,,,,,,,,0.4322,0.3634,0.3761,0.4618,0.304,0.3816,0.2958,0.2406,0.3232,0.3613,0.4321,0.3567,0.3167,,,,,,,,,,,,,,,13,0.7395,0.6774,13,739.5,677.4,1.786,N,1,Anne?skipped stones and?Bob?skipped stones too while?Cindy?was playing tag.,Anne was playing tag.
7,68.75,17,20,short,Anne,browsed,websites,and,Bob,browsed,websites,too,whereas,Cindy,washed,her,clothes,,,,,,,,,,,,0.3739,0.5505,1.209,0.3072,0.2123,0.4167,0.2134,0.3093,0.2508,0.3523,0.6054,0.3186,0.5302,,,,,,,,,,,,,,,15,1.7595,0.6301,15,1759.5,630.1,1.6638,N,1,Anne?browsed websites and?Bob?browsed websites too whereas?Cindy?washed?her?clothes.,Anne washed clothes.
7,68.75,17,23,short,Anne,climbed,mountains,and,Bob,climbed,mountains,too,whereas,Cindy,was,very,afraid,,,,,,,,,,,,0.3664,0.5211,0.7254,0.1926,0.1902,0.3696,0.1557,0.1891,0.4086,0.1667,0.3769,0.4172,0.3616,,,,,,,,,,,,,,,16,1.2465,0.5253,16,1246.5,525.3,1.4583,Y,1,Anne?climbed mountains and?Bob?climbed mountains too whereas?Cindy?was very afraid.,Bob climbed mountains.
7,68.75,17,25,short,Anne,celebrated,success,and,Bob,celebrated,success,too,while,Cindy,finished,the,report,,,,,,,,,,,,0.3024,0.3241,0.4735,0.2923,0.2817,0.4386,0.3576,0.3253,0.3199,0.3545,0.3665,0.3713,0.551,,,,,,,,,,,,,,,17,0.7976,0.7962,17,797.6,796.2,2.0751,Y,1,Anne?celebrated success and?Bob?celebrated success too while?Cindy?finished the report.,Bob celebrated success.
7,68.75,17,26,short,Anne,did,experiments,and,Bob,did,experiments,too,while,Cindy,asked,for,leave,,,,,,,,,,,,0.3171,0.3034,0.7221,0.2526,0.2084,0.3333,0.2445,0.3006,0.3472,0.283,0.4433,0.4799,0.5246,,,,,,,,,,,,,,,14,1.0255,0.5778,14,1025.5,577.8,1.6193,Y,1,Anne?did experiments and?Bob?did experiments too while?Cindy?asked for leave.,Cindy asked for leave.
7,68.75,17,31,short,Anne,collected,firewood,and,Bob,collected,firewood,too,whereas,Cindy,pitched,the,tent,,,,,,,,,,,,0.3752,0.326,1.2486,0.4251,0.3707,0.4806,0.2499,1.0076,0.2038,1.0053,0.3999,0.2805,0.3516,,,,,,,,,,,,,,,17,1.5746,0.7305,17,1574.6,730.5,1.6217,N,1,Anne?collected firewood and?Bob?collected firewood too whereas?Cindy?pitched the tent.,Anne pitched the tent.
7,68.75,17,35,short,Anne,sold,fruits,and,Bob,sold,fruits,too,while,Cindy,handed,out,booklets,,,,,,,,,,,,0.4051,0.3347,0.3155,0.9064,0.2787,0.2814,0.7696,0.3855,0.2401,0.4073,0.281,0.7186,0.3047,,,,,,,,,,,,,,,10,0.6502,1.051,10,650.2,1051,1.4024,Y,1,Anne?sold?fruits?and?Bob?sold?fruits?too while?Cindy?handed out booklets.,Anne sold fruits.
7,68.75,17,41,short,Anne,corrected,papers,and,Bob,corrected,papers,too,whereas,Cindy,prepared,English,lessons,,,,,,,,,,,,0.2367,0.4802,0.455,0.316,0.2409,0.2757,0.2882,0.2741,0.4009,0.2796,0.506,0.3717,0.8205,,,,,,,,,,,,,,,15,0.9352,0.5639,15,935.2,563.9,1.6323,Y,1,Anne?corrected papers and?Bob?corrected papers too whereas?Cindy?prepared English lessons.,Cindy prepared English lessons.
7,68.75,17,53,short,Anne,brought,wine,and,Bob,brought,wine,too,whereas,Cindy,came,empty,handed,,,,,,,,,,,,0.293,0.3105,0.2593,0.4313,0.2158,0.2183,0.1897,0.3917,0.2915,0.3243,0.2332,0.3786,0.3773,,,,,,,,,,,,,,,11,0.5698,0.408,11,569.8,408,1.926,N,1,Anne?brought wine and?Bob?brought wine too whereas?Cindy?came empty handed.,Cindy brought wine.
7,68.75,17,55,short,Anne,studied,medicine,and,Bob,studied,medicine,too,whereas,Cindy,became,an,actress,,,,,,,,,,,,0.1616,0.3301,0.2205,0.2866,0.2802,0.216,0.2358,0.2492,0.2353,0.2151,0.3893,0.2338,0.4092,,,,,,,,,,,,,,,15,0.5506,0.4518,15,550.6,451.8,1.2229,N,1,Anne?studied medicine and?Bob?studied medicine too whereas?Cindy?became an actress.,Anne became an actress.
7,68.75,17,56,short,Anne,was,late,and,Bob,was,late,too,while,Cindy,asked,for,leave,,,,,,,,,,,,0.0054,0.2749,0.532,0.3635,0.234,0.2122,0.2287,0.3404,0.4085,0.2236,0.2664,0.357,0.1938,,,,,,,,,,,,,,,7,0.8069,0.4409,7,806.9,440.9,1.4956,Y,1,Anne?was late and?Bob?was late too while?Cindy?asked for leave.,Bob was late.
7,68.75,17,57,short,Anne,practised,yoga,and,Bob,practised,yoga,too,while,Cindy,was,lifting,weights,,,,,,,,,,,,0.2768,0.2729,0.2538,0.5121,0.168,0.3379,0.2592,0.2672,0.3839,0.2103,0.2605,0.1953,0.4551,,,,,,,,,,,,,,,13,0.5267,0.5971,13,526.7,597.1,1.647,N,1,Anne?practised yoga and?Bob?practised yoga too while?Cindy?was lifting weights.,Cindy practised yoga.
7,68.75,17,63,short,Anne,wrapped,gifts,and,Bob,wrapped,gifts,too,while,Cindy,decorated,the,tree,,,,,,,,,,,,0.1272,0.4156,0.1834,0.4042,0.2619,0.1811,0.2135,0.2243,0.2726,0.3898,0.3867,0.2337,0.2387,,,,,,,,,,,,,,,12,0.599,0.3946,12,599,394.6,1.1587,N,1,Anne?wrapped gifts and?Bob?wrapped gifts too while?Cindy?decorated the tree.,Bob decorated the tree.
7,68.75,17,68,short,Anne,met,friends,and,Bob,met,friends,too,while,Cindy,wrote,her,thesis,,,,,,,,,,,,0.2552,0.2814,0.4205,0.2264,0.1876,0.2582,0.1882,0.1859,0.2087,0.225,0.2574,0.2811,0.2953,,,,,,,,,,,,,,,10,0.7019,0.4464,10,701.9,446.4,1.3545,Y,1,Anne?met friends and?Bob?met friends too while?Cindy?wrote?her?thesis.,Bob met friends.
8,51.25,14,9,short,Anne,met,friends,and,Bob,met,friends,too,while,Cindy,wrote,her,thesis,,,,,,,,,,,,0.4657,0.4129,0.5859,0.5982,0.3911,0.3194,0.4348,0.3955,0.5791,0.4712,0.416,0.3792,1.8298,,,,,,,,,,,,,,,10,0.9988,0.7542,10,998.8,754.2,2.816,N,0,Anne?met friends and?Bob?met friends too while?Cindy?wrote?her?thesis.,Bob met friends.
8,51.25,14,14,short,Anne,wrapped,gifts,and,Bob,wrapped,gifts,too,while,Cindy,decorated,the,tree,,,,,,,,,,,,0.3797,1.2891,0.4082,0.4851,0.3886,0.6382,0.5887,0.3944,0.7308,0.38,2.6403,0.4011,1.2608,,,,,,,,,,,,,,,12,1.6973,1.2269,12,1697.3,1226.9,1.6652,N,1,Anne?wrapped gifts and?Bob?wrapped gifts too while?Cindy?decorated the tree.,Bob decorated the tree.
8,51.25,14,20,short,Anne,practised,yoga,and,Bob,practised,yoga,too,while,Cindy,was,lifting,weights,,,,,,,,,,,,0.5495,0.6686,1.2695,0.7836,0.6798,0.5388,0.4739,0.4224,0.4053,0.3263,0.3073,0.3237,0.8512,,,,,,,,,,,,,,,13,1.9381,1.0127,13,1938.1,1012.7,1.6269,N,1,Anne?practised yoga and?Bob?practised yoga too while?Cindy?was lifting weights.,Cindy practised yoga.
8,51.25,14,21,short,Anne,was,late,and,Bob,was,late,too,while,Cindy,asked,for,leave,,,,,,,,,,,,0.3918,0.6704,0.6539,0.6147,0.5559,0.4064,0.4376,0.3631,0.4927,0.8292,0.5454,0.4289,1.1233,,,,,,,,,,,,,,,7,1.3243,0.844,7,1324.3,844,2.1027,Y,1,Anne?was late and?Bob?was late too while?Cindy?asked for leave.,Bob was late.
8,51.25,14,22,short,Anne,studied,medicine,and,Bob,studied,medicine,too,whereas,Cindy,became,an,actress,,,,,,,,,,,,0.5332,0.6201,1.1181,0.4621,0.4895,0.3938,0.3819,0.6241,0.332,0.3464,0.3521,0.58,0.8704,,,,,,,,,,,,,,,15,1.7382,0.7757,15,1738.2,775.7,1.4645,N,1,Anne?studied medicine and?Bob?studied medicine too whereas?Cindy?became an actress.,Anne became an actress.
8,51.25,14,24,short,Anne,brought,wine,and,Bob,brought,wine,too,whereas,Cindy,came,empty,handed,,,,,,,,,,,,0.3951,0.5612,3.2878,0.6682,0.5184,3.991,0.4178,0.4673,0.5024,0.3524,0.3646,0.8535,0.6138,,,,,,,,,,,,,,,11,3.849,4.4088,11,3849,4408.8,1.9153,N,1,Anne?brought wine and?Bob?brought wine too whereas?Cindy?came empty handed.,Cindy brought wine.
8,51.25,14,36,short,Anne,corrected,papers,and,Bob,corrected,papers,too,whereas,Cindy,prepared,English,lessons,,,,,,,,,,,,0.4162,0.5978,0.7668,0.9683,0.3841,0.6752,0.4703,0.5052,0.3709,0.2613,0.2272,0.47,0.3364,,,,,,,,,,,,,,,15,1.3646,1.1455,15,1364.6,1145.5,1.9747,Y,1,Anne?corrected papers and?Bob?corrected papers too whereas?Cindy?prepared English lessons.,Cindy prepared English lessons.
8,51.25,14,42,short,Anne,sold,fruits,and,Bob,sold,fruits,too,while,Cindy,handed,out,booklets,,,,,,,,,,,,0.3886,0.4064,0.2138,0.2932,0.2704,0.2702,0.3542,0.2682,0.3844,0.6118,0.6083,0.3768,0.8609,,,,,,,,,,,,,,,10,0.6202,0.6244,10,620.2,624.4,1.9223,Y,1,Anne?sold?fruits?and?Bob?sold?fruits?too while?Cindy?handed out booklets.,Anne sold fruits.
8,51.25,14,46,short,Anne,collected,firewood,and,Bob,collected,firewood,too,whereas,Cindy,pitched,the,tent,,,,,,,,,,,,0.4798,0.6374,0.46,0.7463,0.3644,0.8796,0.9902,0.4333,0.7744,0.339,0.4004,0.4195,0.9376,,,,,,,,,,,,,,,17,1.0974,1.8698,17,1097.4,1869.8,1.6597,N,1,Anne?collected firewood and?Bob?collected firewood too whereas?Cindy?pitched the tent.,Anne pitched the tent.
8,51.25,14,51,short,Anne,did,experiments,and,Bob,did,experiments,too,while,Cindy,asked,for,leave,,,,,,,,,,,,0.4796,0.3478,0.8506,0.3546,0.3494,0.2693,0.4627,0.3185,0.3692,0.4702,0.3825,0.3187,0.9038,,,,,,,,,,,,,,,14,1.1984,0.732,14,1198.4,732,1.4797,N,0,Anne?did experiments and?Bob?did experiments too while?Cindy?asked for leave.,Cindy asked for leave.
8,51.25,14,52,short,Anne,celebrated,success,and,Bob,celebrated,success,too,while,Cindy,finished,the,report,,,,,,,,,,,,1.157,0.394,0.8265,0.3467,0.3605,0.5398,0.4393,0.4057,0.3632,0.3364,0.5582,0.4258,0.7978,,,,,,,,,,,,,,,17,1.2205,0.9791,17,1220.5,979.1,1.5494,Y,1,Anne?celebrated success and?Bob?celebrated success too while?Cindy?finished the report.,Bob celebrated success.
8,51.25,14,54,short,Anne,climbed,mountains,and,Bob,climbed,mountains,too,whereas,Cindy,was,very,afraid,,,,,,,,,,,,0.431,0.6526,0.5727,0.3514,0.325,0.3551,0.1732,0.4497,0.3377,0.2215,0.1612,0.2867,0.4633,,,,,,,,,,,,,,,16,1.2253,0.5283,16,1225.3,528.3,1.5682,Y,1,Anne?climbed mountains and?Bob?climbed mountains too whereas?Cindy?was very afraid.,Bob climbed mountains.
8,51.25,14,57,short,Anne,browsed,websites,and,Bob,browsed,websites,too,whereas,Cindy,washed,her,clothes,,,,,,,,,,,,0.3992,1.0794,0.4865,0.408,0.3692,0.3526,0.3448,0.3985,0.3413,0.3115,0.4166,0.4221,0.4638,,,,,,,,,,,,,,,15,1.5659,0.6974,15,1565.9,697.4,1.4334,N,1,Anne?browsed websites and?Bob?browsed websites too whereas?Cindy?washed?her?clothes.,Anne washed clothes.
8,51.25,14,63,short,Anne,skipped,stones,and,Bob,skipped,stones,too,while,Cindy,was,playing,tag,,,,,,,,,,,,0.3972,0.9883,0.357,0.4577,0.4073,0.4169,0.2921,0.469,0.5619,0.3122,0.2415,0.3316,0.2937,,,,,,,,,,,,,,,13,1.3453,0.709,13,1345.3,709,1.4772,N,1,Anne?skipped stones and?Bob?skipped stones too while?Cindy?was playing tag.,Anne was playing tag.
8,51.25,14,69,short,Anne,produced,music,and,Bob,produced,music,too,whereas,Cindy,adjusted,the,microphone,,,,,,,,,,,,0.5081,0.5344,0.356,0.2428,0.2027,0.2406,0.2248,0.436,0.2835,0.2444,0.3269,0.461,0.9887,,,,,,,,,,,,,,,13,0.8904,0.4654,13,890.4,465.4,4.5505,Y,1,Anne?produced music and?Bob?produced music too whereas?Cindy?adjusted the microphone.,Anne produced music.
8,51.25,14,70,short,Anne,gathered,mushrooms,and,Bob,gathered,mushrooms,too,whereas,Cindy,flew,a,kite,,,,,,,,,,,,0.6533,0.4858,0.396,0.3985,0.3019,0.2873,0.2736,0.2856,0.2846,0.3323,0.2946,0.3776,0.3147,,,,,,,,,,,,,,,17,0.8818,0.5609,17,881.8,560.9,1.6202,N,1,Anne?gathered mushrooms and?Bob?gathered mushrooms too whereas?Cindy?flew?a kite.,Bob flew a kite.
9,60,14.5,7,short,Anne,gathered,mushrooms,and,Bob,gathered,mushrooms,too,whereas,Cindy,flew,a,kite,,,,,,,,,,,,0.6641,1.4767,3.131,0.4132,0.3629,0.3938,0.3813,0.4394,0.433,0.3216,0.251,0.7489,0.5662,,,,,,,,,,,,,,,17,4.6077,0.7751,17,4607.7,775.1,1.8469,N,1,Anne?gathered mushrooms and?Bob?gathered mushrooms too whereas?Cindy?flew?a kite.,Bob flew a kite.
9,60,14.5,8,short,Anne,produced,music,and,Bob,produced,music,too,whereas,Cindy,adjusted,the,microphone,,,,,,,,,,,,0.8792,0.7199,1.2503,0.4507,0.7839,0.5199,0.4912,0.3584,0.3716,0.2574,0.5436,0.2869,0.7797,,,,,,,,,,,,,,,13,1.9702,1.0111,13,1970.2,1011.1,2.4762,Y,1,Anne?produced music and?Bob?produced music too whereas?Cindy?adjusted the microphone.,Anne produced music.
9,60,14.5,14,short,Anne,skipped,stones,and,Bob,skipped,stones,too,while,Cindy,was,playing,tag,,,,,,,,,,,,0.7563,0.8905,2.2802,0.5186,0.384,0.4208,0.2901,0.5963,0.3293,0.2531,0.3742,0.3956,0.334,,,,,,,,,,,,,,,13,3.1707,0.7109,13,3170.7,710.9,1.5011,N,1,Anne?skipped stones and?Bob?skipped stones too while?Cindy?was playing tag.,Anne was playing tag.
9,60,14.5,20,short,Anne,browsed,websites,and,Bob,browsed,websites,too,whereas,Cindy,washed,her,clothes,,,,,,,,,,,,0.6811,0.3392,0.5023,0.264,0.732,0.5115,0.2377,0.4055,0.2956,0.4064,0.294,0.5804,0.2917,,,,,,,,,,,,,,,15,0.8415,0.7492,15,841.5,749.2,1.9678,N,1,Anne?browsed websites and?Bob?browsed websites too whereas?Cindy?washed?her?clothes.,Anne washed clothes.
9,60,14.5,23,short,Anne,climbed,mountains,and,Bob,climbed,mountains,too,whereas,Cindy,was,very,afraid,,,,,,,,,,,,0.5725,0.2816,1.3906,0.3034,0.3098,0.4088,0.2386,0.3084,0.4427,0.3278,0.3748,0.2893,0.3525,,,,,,,,,,,,,,,16,1.6722,0.6474,16,1672.2,647.4,2.3981,Y,1,Anne?climbed mountains and?Bob?climbed mountains too whereas?Cindy?was very afraid.,Bob climbed mountains.
9,60,14.5,25,short,Anne,celebrated,success,and,Bob,celebrated,success,too,while,Cindy,finished,the,report,,,,,,,,,,,,0.3453,0.8518,0.9818,0.2658,0.3169,0.382,0.2217,0.327,0.2599,0.2823,0.2562,0.4036,0.4262,,,,,,,,,,,,,,,17,1.8336,0.6037,17,1833.6,603.7,1.4294,Y,1,Anne?celebrated success and?Bob?celebrated success too while?Cindy?finished the report.,Bob celebrated success.
9,60,14.5,26,short,Anne,did,experiments,and,Bob,did,experiments,too,while,Cindy,asked,for,leave,,,,,,,,,,,,0.4855,0.3407,0.697,0.3359,0.2201,0.3597,0.3214,0.2678,0.3057,0.2307,0.3744,0.3423,0.2562,,,,,,,,,,,,,,,14,1.0377,0.6811,14,1037.7,681.1,1.827,Y,1,Anne?did experiments and?Bob?did experiments too while?Cindy?asked for leave.,Cindy asked for leave.
9,60,14.5,31,short,Anne,collected,firewood,and,Bob,collected,firewood,too,whereas,Cindy,pitched,the,tent,,,,,,,,,,,,0.3406,0.2609,1.7949,0.491,0.4853,0.7371,0.3852,0.3932,0.3316,0.2732,0.3487,0.4924,0.3187,,,,,,,,,,,,,,,17,2.0558,1.1223,17,2055.8,1122.3,1.3578,N,1,Anne?collected firewood and?Bob?collected firewood too whereas?Cindy?pitched the tent.,Anne pitched the tent.
9,60,14.5,35,short,Anne,sold,fruits,and,Bob,sold,fruits,too,while,Cindy,handed,out,booklets,,,,,,,,,,,,0.4935,0.5961,0.4971,0.2559,0.2775,0.5765,0.3795,0.2895,0.3527,0.2719,0.367,0.3359,0.5874,,,,,,,,,,,,,,,10,1.0932,0.956,10,1093.2,956,1.2361,Y,1,Anne?sold?fruits?and?Bob?sold?fruits?too while?Cindy?handed out booklets.,Anne sold fruits.
9,60,14.5,41,short,Anne,corrected,papers,and,Bob,corrected,papers,too,whereas,Cindy,prepared,English,lessons,,,,,,,,,,,,0.3446,0.6302,0.3684,0.3482,0.2888,0.3293,0.2158,0.3592,0.3177,0.3116,0.3631,0.5477,0.9501,,,,,,,,,,,,,,,15,0.9986,0.5451,15,998.6,545.1,1.5005,Y,1,Anne?corrected papers and?Bob?corrected papers too whereas?Cindy?prepared English lessons.,Cindy prepared English lessons.
9,60,14.5,53,short,Anne,brought,wine,and,Bob,brought,wine,too,whereas,Cindy,came,empty,handed,,,,,,,,,,,,0.4875,0.5346,0.9507,0.3798,0.5632,0.2993,0.3601,0.4843,0.3457,0.263,0.3226,0.5107,0.7258,,,,,,,,,,,,,,,11,1.4853,0.6594,11,1485.3,659.4,1.6249,N,1,Anne?brought wine and?Bob?brought wine too whereas?Cindy?came empty handed.,Cindy brought wine.
9,60,14.5,55,short,Anne,studied,medicine,and,Bob,studied,medicine,too,whereas,Cindy,became,an,actress,,,,,,,,,,,,0.4472,0.2638,0.3154,0.278,0.3302,0.234,0.4094,0.2373,0.2671,0.2771,0.2988,0.2707,0.4077,,,,,,,,,,,,,,,15,0.5792,0.6434,15,579.2,643.4,1.0482,N,1,Anne?studied medicine and?Bob?studied medicine too whereas?Cindy?became an actress.,Anne became an actress.
9,60,14.5,56,short,Anne,was,late,and,Bob,was,late,too,while,Cindy,asked,for,leave,,,,,,,,,,,,0.2366,0.62,0.6129,0.5751,0.3003,0.6523,0.599,0.2776,0.2807,0.2722,0.2426,0.5898,0.389,,,,,,,,,,,,,,,7,1.2329,1.2513,7,1232.9,1251.3,1.5239,Y,1,Anne?was late and?Bob?was late too while?Cindy?asked for leave.,Bob was late.
9,60,14.5,57,short,Anne,practised,yoga,and,Bob,practised,yoga,too,while,Cindy,was,lifting,weights,,,,,,,,,,,,0.5427,0.5777,1.0171,0.2559,0.2457,0.37,0.2232,0.4511,0.2187,0.2615,0.3498,0.7065,0.7398,,,,,,,,,,,,,,,13,1.5948,0.5932,13,1594.8,593.2,1.4206,N,1,Anne?practised yoga and?Bob?practised yoga too while?Cindy?was lifting weights.,Cindy practised yoga.
9,60,14.5,63,short,Anne,wrapped,gifts,and,Bob,wrapped,gifts,too,while,Cindy,decorated,the,tree,,,,,,,,,,,,0.2511,0.2522,1.6149,0.3884,0.3502,0.3218,0.2369,0.2618,0.364,0.5527,0.2392,0.4528,0.335,,,,,,,,,,,,,,,12,1.8671,0.5587,12,1867.1,558.7,1.7271,N,1,Anne?wrapped gifts and?Bob?wrapped gifts too while?Cindy?decorated the tree.,Bob decorated the tree.
9,60,14.5,68,short,Anne,met,friends,and,Bob,met,friends,too,while,Cindy,wrote,her,thesis,,,,,,,,,,,,0.5037,0.2538,0.5085,0.3249,0.2674,0.2146,0.4279,0.198,0.219,0.2961,0.3403,0.3072,0.3992,,,,,,,,,,,,,,,10,0.7623,0.6425,10,762.3,642.5,1.2798,Y,1,Anne?met friends and?Bob?met friends too while?Cindy?wrote?her?thesis.,Bob met friends.
10,55,12.5,9,short,Anne,met,friends,and,Bob,met,friends,too,while,Cindy,wrote,her,thesis,,,,,,,,,,,,0.3034,0.3668,0.4522,0.5263,0.4625,0.4511,0.5133,0.5144,0.5604,0.5135,0.5561,0.5418,0.5365,,,,,,,,,,,,,,,10,0.819,0.9644,10,819,964.4,11.0219,N,0,Anne?met friends and?Bob?met friends too while?Cindy?wrote?her?thesis.,Bob met friends.
10,55,12.5,14,short,Anne,wrapped,gifts,and,Bob,wrapped,gifts,too,while,Cindy,decorated,the,tree,,,,,,,,,,,,0.4046,2.4719,0.7419,0.4232,0.3883,0.4697,0.415,0.4121,0.4508,0.4495,1.5467,0.495,0.6765,,,,,,,,,,,,,,,12,3.2138,0.8847,12,3213.8,884.7,2.0501,N,1,Anne?wrapped gifts and?Bob?wrapped gifts too while?Cindy?decorated the tree.,Bob decorated the tree.
10,55,12.5,20,short,Anne,practised,yoga,and,Bob,practised,yoga,too,while,Cindy,was,lifting,weights,,,,,,,,,,,,0.1689,1.1963,0.5424,0.5169,0.6925,0.4678,0.3734,0.4321,0.4468,0.6895,0.4914,0.5547,0.7143,,,,,,,,,,,,,,,13,1.7387,0.8412,13,1738.7,841.2,2.6369,Y,0,Anne?practised yoga and?Bob?practised yoga too while?Cindy?was lifting weights.,Cindy practised yoga.
10,55,12.5,21,short,Anne,was,late,and,Bob,was,late,too,while,Cindy,asked,for,leave,,,,,,,,,,,,0.148,0.6619,0.4429,0.4362,0.4738,0.4128,0.3974,0.4331,0.4129,0.8682,0.5718,0.5257,1.0271,,,,,,,,,,,,,,,7,1.1048,0.8102,7,1104.8,810.2,1.8861,Y,1,Anne?was late and?Bob?was late too while?Cindy?asked for leave.,Bob was late.
10,55,12.5,22,short,Anne,studied,medicine,and,Bob,studied,medicine,too,whereas,Cindy,became,an,actress,,,,,,,,,,,,0.1244,2.1778,0.6398,0.4887,0.4857,0.4469,0.4799,0.43,0.9956,0.5196,0.4867,0.5204,0.6659,,,,,,,,,,,,,,,15,2.8176,0.9268,15,2817.6,926.8,4.2474,Y,0,Anne?studied medicine and?Bob?studied medicine too whereas?Cindy?became an actress.,Anne became an actress.
10,55,12.5,24,short,Anne,brought,wine,and,Bob,brought,wine,too,whereas,Cindy,came,empty,handed,,,,,,,,,,,,0.3471,1.0531,0.3564,0.5822,0.4617,0.4799,0.449,0.4273,0.6203,0.46,0.5823,0.5979,0.4631,,,,,,,,,,,,,,,11,1.4095,0.9289,11,1409.5,928.9,3.7614,Y,0,Anne?brought wine and?Bob?brought wine too whereas?Cindy?came empty handed.,Cindy brought wine.
10,55,12.5,36,short,Anne,corrected,papers,and,Bob,corrected,papers,too,whereas,Cindy,prepared,English,lessons,,,,,,,,,,,,0.4443,0.651,0.6066,0.4493,0.5482,0.6138,0.556,0.5158,0.5236,0.5171,0.597,0.4906,0.5203,,,,,,,,,,,,,,,15,1.2576,1.1698,15,1257.6,1169.8,2.2964,Y,1,Anne?corrected papers and?Bob?corrected papers too whereas?Cindy?prepared English lessons.,Cindy prepared English lessons.
10,55,12.5,42,short,Anne,sold,fruits,and,Bob,sold,fruits,too,while,Cindy,handed,out,booklets,,,,,,,,,,,,0.0876,0.7713,0.8019,0.407,0.4275,0.5457,0.4125,0.4524,0.4233,0.4601,0.6268,0.5184,0.9147,,,,,,,,,,,,,,,10,1.5732,0.9582,10,1573.2,958.2,2.0901,Y,1,Anne?sold?fruits?and?Bob?sold?fruits?too while?Cindy?handed out booklets.,Anne sold fruits.
10,55,12.5,46,short,Anne,collected,firewood,and,Bob,collected,firewood,too,whereas,Cindy,pitched,the,tent,,,,,,,,,,,,0.0407,1.5821,1.0639,0.4138,0.4596,0.4204,0.504,0.4444,0.5676,0.4492,0.4272,0.4058,0.4181,,,,,,,,,,,,,,,17,2.646,0.9244,17,2646,924.4,1.9112,N,1,Anne?collected firewood and?Bob?collected firewood too whereas?Cindy?pitched the tent.,Anne pitched the tent.
10,55,12.5,51,short,Anne,did,experiments,and,Bob,did,experiments,too,while,Cindy,asked,for,leave,,,,,,,,,,,,0.4335,0.671,0.6198,0.5455,0.4551,0.4384,0.4876,0.4226,0.3901,0.4119,0.5476,0.4441,0.5181,,,,,,,,,,,,,,,14,1.2908,0.926,14,1290.8,926,2.1233,Y,1,Anne?did experiments and?Bob?did experiments too while?Cindy?asked for leave.,Cindy asked for leave.
10,55,12.5,52,short,Anne,celebrated,success,and,Bob,celebrated,success,too,while,Cindy,finished,the,report,,,,,,,,,,,,0.3934,0.7005,0.5138,0.4503,0.4312,0.4348,0.4267,0.4068,0.3895,0.3812,0.4121,0.4836,0.5032,,,,,,,,,,,,,,,17,1.2143,0.8615,17,1214.3,861.5,1.5551,Y,1,Anne?celebrated success and?Bob?celebrated success too while?Cindy?finished the report.,Bob celebrated success.
10,55,12.5,54,short,Anne,climbed,mountains,and,Bob,climbed,mountains,too,whereas,Cindy,was,very,afraid,,,,,,,,,,,,0.5008,0.8502,0.552,0.4297,0.4127,0.4531,0.4438,0.4678,0.4885,0.455,0.417,0.5542,0.78,,,,,,,,,,,,,,,16,1.4022,0.8969,16,1402.2,896.9,2.1581,Y,1,Anne?climbed mountains and?Bob?climbed mountains too whereas?Cindy?was very afraid.,Bob climbed mountains.
10,55,12.5,57,short,Anne,browsed,websites,and,Bob,browsed,websites,too,whereas,Cindy,washed,her,clothes,,,,,,,,,,,,0.435,1.1276,0.7402,0.3993,0.3858,0.5421,0.4371,0.3738,0.4282,0.4257,0.5717,0.4173,0.5201,,,,,,,,,,,,,,,15,1.8678,0.9792,15,1867.8,979.2,1.6978,N,1,Anne?browsed websites and?Bob?browsed websites too whereas?Cindy?washed?her?clothes.,Anne washed clothes.
10,55,12.5,63,short,Anne,skipped,stones,and,Bob,skipped,stones,too,while,Cindy,was,playing,tag,,,,,,,,,,,,0.4619,0.7817,0.5482,0.4878,0.4836,0.4157,0.434,0.4163,0.7448,0.4722,0.4377,0.4645,0.5822,,,,,,,,,,,,,,,13,1.3299,0.8497,13,1329.9,849.7,1.996,N,1,Anne?skipped stones and?Bob?skipped stones too while?Cindy?was playing tag.,Anne was playing tag.
10,55,12.5,69,short,Anne,produced,music,and,Bob,produced,music,too,whereas,Cindy,adjusted,the,microphone,,,,,,,,,,,,0.3956,0.8019,0.4822,0.3439,0.3912,0.3964,0.3853,0.412,0.4428,0.4559,0.9078,0.4296,1.0993,,,,,,,,,,,,,,,13,1.2841,0.7817,13,1284.1,781.7,2.2045,Y,1,Anne?produced music and?Bob?produced music too whereas?Cindy?adjusted the microphone.,Anne produced music.
10,55,12.5,70,short,Anne,gathered,mushrooms,and,Bob,gathered,mushrooms,too,whereas,Cindy,flew,a,kite,,,,,,,,,,,,0.3422,0.7558,0.9151,0.4,0.4194,0.3575,0.3943,0.4218,0.4132,0.3471,0.4705,0.3892,0.6365,,,,,,,,,,,,,,,17,1.6709,0.7518,17,1670.9,751.8,1.093,N,1,Anne?gathered mushrooms and?Bob?gathered mushrooms too whereas?Cindy?flew?a kite.,Bob flew a kite.
11,60,16.5,7,short,Anne,gathered,mushrooms,and,Bob,gathered,mushrooms,too,whereas,Cindy,flew,a,kite,,,,,,,,,,,,2.1398,1.9106,2.2212,0.6277,0.6826,0.7655,0.9513,0.9309,0.6965,0.6427,0.6436,0.6134,0.751,,,,,,,,,,,,,,,17,4.1318,1.7168,17,4131.8,1716.8,2.1458,N,1,Anne?gathered mushrooms and?Bob?gathered mushrooms too whereas?Cindy?flew?a kite.,Bob flew a kite.
11,60,16.5,8,short,Anne,produced,music,and,Bob,produced,music,too,whereas,Cindy,adjusted,the,microphone,,,,,,,,,,,,0.6825,2.4855,1.0615,0.6477,0.4945,0.602,0.7034,0.4515,0.5797,0.5146,0.8459,0.5988,1.1128,,,,,,,,,,,,,,,13,3.547,1.3054,13,3547,1305.4,2.5149,Y,1,Anne?produced music and?Bob?produced music too whereas?Cindy?adjusted the microphone.,Anne produced music.
11,60,16.5,14,short,Anne,skipped,stones,and,Bob,skipped,stones,too,while,Cindy,was,playing,tag,,,,,,,,,,,,0.5346,1.5551,0.9998,0.6965,0.6709,1.1845,0.8284,0.4483,0.4854,0.6566,0.6401,0.7205,3.3127,,,,,,,,,,,,,,,13,2.5549,2.0129,13,2554.9,2012.9,2.1606,N,1,Anne?skipped stones and?Bob?skipped stones too while?Cindy?was playing tag.,Anne was playing tag.
11,60,16.5,20,short,Anne,browsed,websites,and,Bob,browsed,websites,too,whereas,Cindy,washed,her,clothes,,,,,,,,,,,,0.3829,0.4094,1.5626,0.5298,1.3778,1.0553,0.7164,0.4618,1.1229,0.5277,0.6714,0.626,0.8488,,,,,,,,,,,,,,,15,1.972,1.7717,15,1972,1771.7,1.5699,N,1,Anne?browsed websites and?Bob?browsed websites too whereas?Cindy?washed?her?clothes.,Anne washed clothes.
11,60,16.5,23,short,Anne,climbed,mountains,and,Bob,climbed,mountains,too,whereas,Cindy,was,very,afraid,,,,,,,,,,,,0.4171,0.6951,0.7334,0.7537,0.6758,0.4796,0.531,0.7805,0.8013,0.3909,0.3776,0.5414,0.969,,,,,,,,,,,,,,,16,1.4285,1.0106,16,1428.5,1010.6,2.2057,Y,1,Anne?climbed mountains and?Bob?climbed mountains too whereas?Cindy?was very afraid.,Bob climbed mountains.
11,60,16.5,25,short,Anne,celebrated,success,and,Bob,celebrated,success,too,while,Cindy,finished,the,report,,,,,,,,,,,,0.2535,0.6246,0.4238,0.453,0.4015,0.4518,0.3844,0.3555,0.3531,0.4539,0.4486,0.4552,2.2565,,,,,,,,,,,,,,,17,1.0484,0.8362,17,1048.4,836.2,1.7369,Y,1,Anne?celebrated success and?Bob?celebrated success too while?Cindy?finished the report.,Bob celebrated success.
11,60,16.5,26,short,Anne,did,experiments,and,Bob,did,experiments,too,while,Cindy,asked,for,leave,,,,,,,,,,,,0.7287,0.3835,1.1811,0.3753,0.3302,0.326,0.3546,0.2991,0.3199,0.3294,0.4453,0.482,0.9392,,,,,,,,,,,,,,,14,1.5646,0.6806,14,1564.6,680.6,2.5235,Y,1,Anne?did experiments and?Bob?did experiments too while?Cindy?asked for leave.,Cindy asked for leave.
11,60,16.5,31,short,Anne,collected,firewood,and,Bob,collected,firewood,too,whereas,Cindy,pitched,the,tent,,,,,,,,,,,,1.0053,1.3698,4.2677,0.3635,0.4307,0.2135,0.561,0.3249,0.2697,0.3984,0.7739,0.4113,0.5861,,,,,,,,,,,,,,,17,5.6375,0.7745,17,5637.5,774.5,1.8017,N,1,Anne?collected firewood and?Bob?collected firewood too whereas?Cindy?pitched the tent.,Anne pitched the tent.
11,60,16.5,35,short,Anne,sold,fruits,and,Bob,sold,fruits,too,while,Cindy,handed,out,booklets,,,,,,,,,,,,0.4615,0.7757,1.0664,0.5324,0.3581,0.4524,0.4872,0.4268,0.4537,0.3456,0.6438,0.4255,1.4776,,,,,,,,,,,,,,,10,1.8421,0.9396,10,1842.1,939.6,1.7253,Y,1,Anne?sold?fruits?and?Bob?sold?fruits?too while?Cindy?handed out booklets.,Anne sold fruits.
11,60,16.5,41,short,Anne,corrected,papers,and,Bob,corrected,papers,too,whereas,Cindy,prepared,English,lessons,,,,,,,,,,,,0.3098,0.406,1.0685,1.6773,1.6775,0.6382,0.4814,0.3451,0.7189,0.3172,0.2784,1.2308,0.866,,,,,,,,,,,,,,,15,1.4745,1.1196,15,1474.5,1119.6,4.2283,Y,1,Anne?corrected papers and?Bob?corrected papers too whereas?Cindy?prepared English lessons.,Cindy prepared English lessons.
11,60,16.5,53,short,Anne,brought,wine,and,Bob,brought,wine,too,whereas,Cindy,came,empty,handed,,,,,,,,,,,,0.3813,0.2934,1.1741,0.558,0.2855,0.4886,0.2361,0.33,0.3763,0.3075,0.3231,0.759,0.7214,,,,,,,,,,,,,,,11,1.4675,0.7247,11,1467.5,724.7,1.5409,N,1,Anne?brought wine and?Bob?brought wine too whereas?Cindy?came empty handed.,Cindy brought wine.
11,60,16.5,55,short,Anne,studied,medicine,and,Bob,studied,medicine,too,whereas,Cindy,became,an,actress,,,,,,,,,,,,0.2669,0.3725,0.7984,0.7605,0.669,0.6165,0.5318,0.8283,0.5078,0.3129,0.4617,0.3824,0.7492,,,,,,,,,,,,,,,15,1.1709,1.1483,15,1170.9,1148.3,1.3589,N,1,Anne?studied medicine and?Bob?studied medicine too whereas?Cindy?became an actress.,Anne became an actress.
11,60,16.5,56,short,Anne,was,late,and,Bob,was,late,too,while,Cindy,asked,for,leave,,,,,,,,,,,,0.3728,0.3733,0.4211,0.5115,0.3882,0.2912,0.3196,0.4099,0.4492,0.5428,0.6448,0.6367,0.3011,,,,,,,,,,,,,,,7,0.7944,0.6108,7,794.4,610.8,1.9302,Y,1,Anne?was late and?Bob?was late too while?Cindy?asked for leave.,Bob was late.
11,60,16.5,57,short,Anne,practised,yoga,and,Bob,practised,yoga,too,while,Cindy,was,lifting,weights,,,,,,,,,,,,0.302,0.3929,0.729,0.4173,0.5443,0.6136,0.4322,0.4583,0.4984,0.8451,0.5104,2.8986,0.833,,,,,,,,,,,,,,,13,1.1219,1.0458,13,1121.9,1045.8,1.8841,N,1,Anne?practised yoga and?Bob?practised yoga too while?Cindy?was lifting weights.,Cindy practised yoga.
11,60,16.5,63,short,Anne,wrapped,gifts,and,Bob,wrapped,gifts,too,while,Cindy,decorated,the,tree,,,,,,,,,,,,0.319,0.2887,0.5848,0.4101,0.472,0.4711,0.2309,0.3959,0.3694,0.4048,0.8102,0.4055,0.3006,,,,,,,,,,,,,,,12,0.8735,0.702,12,873.5,702,1.2663,N,1,Anne?wrapped gifts and?Bob?wrapped gifts too while?Cindy?decorated the tree.,Bob decorated the tree.
11,60,16.5,68,short,Anne,met,friends,and,Bob,met,friends,too,while,Cindy,wrote,her,thesis,,,,,,,,,,,,0.2768,0.2987,0.5157,0.32,0.3659,0.3852,0.3961,0.2543,0.3225,0.3064,0.5078,0.6444,0.4028,,,,,,,,,,,,,,,10,0.8144,0.7813,10,814.4,781.3,2.8914,Y,1,Anne?met friends and?Bob?met friends too while?Cindy?wrote?her?thesis.,Bob met friends.
12,56.25,15.5,9,short,Anne,met,friends,and,Bob,met,friends,too,while,Cindy,wrote,her,thesis,,,,,,,,,,,,1.0223,0.767,0.9283,0.8787,0.5659,0.6746,0.7185,0.6325,0.7226,1.871,0.9829,1.117,0.7459,,,,,,,,,,,,,,,10,1.6953,1.3931,10,1695.3,1393.1,2.193,Y,1,Anne?met friends and?Bob?met friends too while?Cindy?wrote?her?thesis.,Bob met friends.
12,56.25,15.5,14,short,Anne,wrapped,gifts,and,Bob,wrapped,gifts,too,while,Cindy,decorated,the,tree,,,,,,,,,,,,0.5192,1.688,1.0881,1.0423,0.6041,0.9665,0.4389,1.044,0.4247,0.8546,0.8516,0.5179,0.7904,,,,,,,,,,,,,,,12,2.7761,1.4054,12,2776.1,1405.4,1.5973,N,1,Anne?wrapped gifts and?Bob?wrapped gifts too while?Cindy?decorated the tree.,Bob decorated the tree.
12,56.25,15.5,20,short,Anne,practised,yoga,and,Bob,practised,yoga,too,while,Cindy,was,lifting,weights,,,,,,,,,,,,0.4126,0.1923,0.9683,0.1409,1.5713,0.6421,0.3685,0.5175,0.3829,0.4903,0.5903,0.7316,0.7462,,,,,,,,,,,,,,,13,1.1606,1.0106,13,1160.6,1010.6,2.4303,N,1,Anne?practised yoga and?Bob?practised yoga too while?Cindy?was lifting weights.,Cindy practised yoga.
12,56.25,15.5,21,short,Anne,was,late,and,Bob,was,late,too,while,Cindy,asked,for,leave,,,,,,,,,,,,0.4143,0.281,0.319,0.4625,0.3586,0.5012,0.3215,0.4604,1.1872,0.3293,0.3338,0.369,0.5642,,,,,,,,,,,,,,,7,0.6,0.8227,7,600,822.7,1.8549,Y,1,Anne?was late and?Bob?was late too while?Cindy?asked for leave.,Bob was late.
12,56.25,15.5,22,short,Anne,studied,medicine,and,Bob,studied,medicine,too,whereas,Cindy,became,an,actress,,,,,,,,,,,,0.3541,0.345,0.6357,0.9103,0.3719,0.3951,0.5702,0.3087,0.4797,0.429,0.4625,0.5543,1.4571,,,,,,,,,,,,,,,15,0.9807,0.9653,15,980.7,965.3,3.2672,Y,0,Anne?studied medicine and?Bob?studied medicine too whereas?Cindy?became an actress.,Anne became an actress.
12,56.25,15.5,24,short,Anne,brought,wine,and,Bob,brought,wine,too,whereas,Cindy,came,empty,handed,,,,,,,,,,,,0.421,1.0612,0.9927,0.3596,0.3026,0.5006,0.2744,0.6087,0.4509,0.4598,0.2356,0.8442,0.1902,,,,,,,,,,,,,,,11,2.0539,0.775,11,2053.9,775,4.0475,N,1,Anne?brought wine and?Bob?brought wine too whereas?Cindy?came empty handed.,Cindy brought wine.
12,56.25,15.5,36,short,Anne,corrected,papers,and,Bob,corrected,papers,too,whereas,Cindy,prepared,English,lessons,,,,,,,,,,,,0.3552,0.781,0.7037,0.2236,0.3772,0.1955,1.2752,0.4297,0.803,0.4691,0.677,2.5608,0.8281,,,,,,,,,,,,,,,15,1.4847,1.4707,15,1484.7,1470.7,2.0199,Y,1,Anne?corrected papers and?Bob?corrected papers too whereas?Cindy?prepared English lessons.,Cindy prepared English lessons.
12,56.25,15.5,42,short,Anne,sold,fruits,and,Bob,sold,fruits,too,while,Cindy,handed,out,booklets,,,,,,,,,,,,0.4083,0.359,1.0594,0.5596,0.5684,0.4731,0.4099,0.4768,0.3796,0.4575,0.4329,0.5881,2.7318,,,,,,,,,,,,,,,10,1.4184,0.883,10,1418.4,883,1.8168,Y,1,Anne?sold?fruits?and?Bob?sold?fruits?too while?Cindy?handed out booklets.,Anne sold fruits.
12,56.25,15.5,46,short,Anne,collected,firewood,and,Bob,collected,firewood,too,whereas,Cindy,pitched,the,tent,,,,,,,,,,,,0.3656,2.052,3.1054,0.5431,0.6005,0.6228,0.2728,0.596,0.4308,0.3063,0.8164,1.2979,0.9774,,,,,,,,,,,,,,,17,5.1574,0.8956,17,5157.4,895.6,2.4248,N,1,Anne?collected firewood and?Bob?collected firewood too whereas?Cindy?pitched the tent.,Anne pitched the tent.
12,56.25,15.5,51,short,Anne,did,experiments,and,Bob,did,experiments,too,while,Cindy,asked,for,leave,,,,,,,,,,,,0.4043,0.1849,0.9088,0.4139,0.5695,0.3026,0.5814,0.2425,0.3908,0.2592,0.4083,0.2568,0.8554,,,,,,,,,,,,,,,14,1.0937,0.884,14,1093.7,884,1.434,Y,1,Anne?did experiments and?Bob?did experiments too while?Cindy?asked for leave.,Cindy asked for leave.
12,56.25,15.5,52,short,Anne,celebrated,success,and,Bob,celebrated,success,too,while,Cindy,finished,the,report,,,,,,,,,,,,0.7758,0.9467,0.3628,0.8472,0.4888,0.2463,0.3314,0.3829,0.5331,0.4069,0.6175,0.4475,0.4609,,,,,,,,,,,,,,,17,1.3095,0.5777,17,1309.5,577.7,8.5836,N,0,Anne?celebrated success and?Bob?celebrated success too while?Cindy?finished the report.,Bob celebrated success.
12,56.25,15.5,54,short,Anne,climbed,mountains,and,Bob,climbed,mountains,too,whereas,Cindy,was,very,afraid,,,,,,,,,,,,0.4189,0.3433,1.1596,0.3484,0.4111,0.2366,1.2072,0.2583,0.4127,0.2073,0.239,0.3988,0.6805,,,,,,,,,,,,,,,16,1.5029,1.4438,16,1502.9,1443.8,1.8951,Y,1,Anne?climbed mountains and?Bob?climbed mountains too whereas?Cindy?was very afraid.,Bob climbed mountains.
12,56.25,15.5,57,short,Anne,browsed,websites,and,Bob,browsed,websites,too,whereas,Cindy,washed,her,clothes,,,,,,,,,,,,0.3751,0.854,0.7974,0.5079,0.8627,0.6733,0.7648,0.5606,0.9417,3.2485,0.9718,0.6278,0.6186,,,,,,,,,,,,,,,15,1.6514,1.4381,15,1651.4,1438.1,3.3567,N,1,Anne?browsed websites and?Bob?browsed websites too whereas?Cindy?washed?her?clothes.,Anne washed clothes.
12,56.25,15.5,63,short,Anne,skipped,stones,and,Bob,skipped,stones,too,while,Cindy,was,playing,tag,,,,,,,,,,,,0.3775,0.195,0.7845,0.124,0.5816,0.1401,0.8752,0.359,0.5109,0.3067,0.4964,0.4405,0.3482,,,,,,,,,,,,,,,13,0.9795,1.0153,13,979.5,1015.3,5.4372,N,1,Anne?skipped stones and?Bob?skipped stones too while?Cindy?was playing tag.,Anne was playing tag.
12,56.25,15.5,69,short,Anne,produced,music,and,Bob,produced,music,too,whereas,Cindy,adjusted,the,microphone,,,,,,,,,,,,0.4098,0.3739,0.8528,0.5274,0.4698,0.5698,0.535,0.6592,0.4959,0.4503,0.6905,0.3948,1.129,,,,,,,,,,,,,,,13,1.2267,1.1048,13,1226.7,1104.8,2.0962,Y,1,Anne?produced music and?Bob?produced music too whereas?Cindy?adjusted the microphone.,Anne produced music.
12,56.25,15.5,70,short,Anne,gathered,mushrooms,and,Bob,gathered,mushrooms,too,whereas,Cindy,flew,a,kite,,,,,,,,,,,,0.3855,0.1837,1.2904,0.4087,0.4578,0.1821,0.5622,0.5434,0.6075,0.1822,0.6352,0.2754,0.8075,,,,,,,,,,,,,,,17,1.4741,0.7443,17,1474.1,744.3,1.8276,N,1,Anne?gathered mushrooms and?Bob?gathered mushrooms too whereas?Cindy?flew?a kite.,Bob flew a kite.
13,57.5,14,7,short,Anne,gathered,mushrooms,and,Bob,gathered,mushrooms,too,whereas,Cindy,flew,a,kite,,,,,,,,,,,,0.9888,1.2155,0.7309,0.4969,0.415,0.5726,0.8462,0.4991,0.6795,0.4487,0.3124,0.4943,0.6196,,,,,,,,,,,,,,,17,1.9464,1.4188,17,1946.4,1418.8,1.3842,N,1,Anne?gathered mushrooms and?Bob?gathered mushrooms too whereas?Cindy?flew?a kite.,Bob flew a kite.
13,57.5,14,8,short,Anne,produced,music,and,Bob,produced,music,too,whereas,Cindy,adjusted,the,microphone,,,,,,,,,,,,0.709,1.1682,1.5271,0.4901,0.3174,0.506,0.5453,0.3845,0.4458,0.3585,0.9502,0.4628,1.2064,,,,,,,,,,,,,,,13,2.6953,1.0513,13,2695.3,1051.3,1.8155,Y,1,Anne?produced music and?Bob?produced music too whereas?Cindy?adjusted the microphone.,Anne produced music.
13,57.5,14,14,short,Anne,skipped,stones,and,Bob,skipped,stones,too,while,Cindy,was,playing,tag,,,,,,,,,,,,0.3686,0.2495,0.4849,0.5689,0.6843,0.6224,0.364,0.3669,0.3563,0.2942,0.1752,0.4082,0.2255,,,,,,,,,,,,,,,13,0.7344,0.9864,13,734.4,986.4,1.4029,N,1,Anne?skipped stones and?Bob?skipped stones too while?Cindy?was playing tag.,Anne was playing tag.
13,57.5,14,20,short,Anne,browsed,websites,and,Bob,browsed,websites,too,whereas,Cindy,washed,her,clothes,,,,,,,,,,,,0.3329,0.8694,1.2036,0.5392,0.536,0.8072,0.6024,0.3158,0.3338,0.2936,0.2519,0.3541,0.4617,,,,,,,,,,,,,,,15,2.073,1.4096,15,2073,1409.6,1.8244,N,1,Anne?browsed websites and?Bob?browsed websites too whereas?Cindy?washed?her?clothes.,Anne washed clothes.
13,57.5,14,23,short,Anne,climbed,mountains,and,Bob,climbed,mountains,too,whereas,Cindy,was,very,afraid,,,,,,,,,,,,0.3449,1.0876,0.9721,0.6632,0.2808,0.3154,0.2644,0.3904,0.2532,0.1748,0.1795,0.3091,0.2154,,,,,,,,,,,,,,,16,2.0597,0.5798,16,2059.7,579.8,1.4322,Y,1,Anne?climbed mountains and?Bob?climbed mountains too whereas?Cindy?was very afraid.,Bob climbed mountains.
13,57.5,14,25,short,Anne,celebrated,success,and,Bob,celebrated,success,too,while,Cindy,finished,the,report,,,,,,,,,,,,0.6523,1.3468,0.6834,0.4151,0.3564,0.5088,0.4617,0.2107,0.1928,0.2125,0.2041,0.3063,0.272,,,,,,,,,,,,,,,17,2.0302,0.9705,17,2030.2,970.5,1.2826,Y,1,Anne?celebrated success and?Bob?celebrated success too while?Cindy?finished the report.,Bob celebrated success.
13,57.5,14,26,short,Anne,did,experiments,and,Bob,did,experiments,too,while,Cindy,asked,for,leave,,,,,,,,,,,,0.3073,0.3376,0.8156,0.4356,0.2217,0.1784,0.1665,0.7849,0.1826,0.3861,0.1824,0.6494,0.8097,,,,,,,,,,,,,,,14,1.1532,0.3449,14,1153.2,344.9,2.2396,Y,1,Anne?did experiments and?Bob?did experiments too while?Cindy?asked for leave.,Cindy asked for leave.
13,57.5,14,31,short,Anne,collected,firewood,and,Bob,collected,firewood,too,whereas,Cindy,pitched,the,tent,,,,,,,,,,,,0.2925,0.2146,1.1331,0.6351,0.4316,0.4009,0.4394,0.9319,0.18,0.319,0.1786,0.1687,1.0803,,,,,,,,,,,,,,,17,1.3477,0.8403,17,1347.7,840.3,1.474,N,1,Anne?collected firewood and?Bob?collected firewood too whereas?Cindy?pitched the tent.,Anne pitched the tent.
13,57.5,14,35,short,Anne,sold,fruits,and,Bob,sold,fruits,too,while,Cindy,handed,out,booklets,,,,,,,,,,,,0.4217,0.2021,0.7241,0.3851,0.289,0.2386,0.2943,0.3262,0.2542,0.3449,0.2149,0.5698,1.426,,,,,,,,,,,,,,,10,0.9262,0.5329,10,926.2,532.9,1.4434,Y,1,Anne?sold?fruits?and?Bob?sold?fruits?too while?Cindy?handed out booklets.,Anne sold fruits.
13,57.5,14,41,short,Anne,corrected,papers,and,Bob,corrected,papers,too,whereas,Cindy,prepared,English,lessons,,,,,,,,,,,,0.3124,0.6328,0.5826,1.0416,0.7162,0.5712,0.4275,0.4984,0.2556,0.4143,0.6609,0.6642,0.8698,,,,,,,,,,,,,,,15,1.2154,0.9987,15,1215.4,998.7,2.5121,Y,1,Anne?corrected papers and?Bob?corrected papers too whereas?Cindy?prepared English lessons.,Cindy prepared English lessons.
13,57.5,14,53,short,Anne,brought,wine,and,Bob,brought,wine,too,whereas,Cindy,came,empty,handed,,,,,,,,,,,,0.3209,0.6473,0.4684,0.3815,0.2013,0.35,0.1859,0.3051,0.1935,0.2357,0.2692,0.8047,0.336,,,,,,,,,,,,,,,11,1.1157,0.5359,11,1115.7,535.9,1.7462,N,1,Anne?brought wine and?Bob?brought wine too whereas?Cindy?came empty handed.,Cindy brought wine.
13,57.5,14,55,short,Anne,studied,medicine,and,Bob,studied,medicine,too,whereas,Cindy,became,an,actress,,,,,,,,,,,,0.3259,0.3547,0.3296,0.5612,0.4144,0.3135,0.4735,0.2097,0.2099,0.3793,0.2569,0.3307,0.2457,,,,,,,,,,,,,,,15,0.6843,0.787,15,684.3,787,1.4779,N,1,Anne?studied medicine and?Bob?studied medicine too whereas?Cindy?became an actress.,Anne became an actress.
13,57.5,14,56,short,Anne,was,late,and,Bob,was,late,too,while,Cindy,asked,for,leave,,,,,,,,,,,,0.2698,0.2831,0.3555,0.4616,0.4155,0.3329,0.4272,0.7339,0.4071,0.4664,0.2812,0.364,0.3146,,,,,,,,,,,,,,,7,0.6386,0.7601,7,638.6,760.1,1.291,Y,1,Anne?was late and?Bob?was late too while?Cindy?asked for leave.,Bob was late.
13,57.5,14,57,short,Anne,practised,yoga,and,Bob,practised,yoga,too,while,Cindy,was,lifting,weights,,,,,,,,,,,,0.2845,0.9903,0.2297,0.4916,0.3299,0.1937,0.2295,0.2266,0.3029,0.2535,0.2394,0.6734,0.227,,,,,,,,,,,,,,,13,1.22,0.4232,13,1220,423.2,1.6528,N,1,Anne?practised yoga and?Bob?practised yoga too while?Cindy?was lifting weights.,Cindy practised yoga.
13,57.5,14,63,short,Anne,wrapped,gifts,and,Bob,wrapped,gifts,too,while,Cindy,decorated,the,tree,,,,,,,,,,,,0.2932,0.2288,0.7185,0.9854,0.5108,0.4302,0.4629,0.3522,0.4872,0.4132,0.6534,0.5044,1.0652,,,,,,,,,,,,,,,12,0.9473,0.8931,12,947.3,893.1,1.1137,N,1,Anne?wrapped gifts and?Bob?wrapped gifts too while?Cindy?decorated the tree.,Bob decorated the tree.
13,57.5,14,68,short,Anne,met,friends,and,Bob,met,friends,too,while,Cindy,wrote,her,thesis,,,,,,,,,,,,0.2626,0.1822,0.4624,0.748,0.21,0.3208,0.1994,0.2137,0.2315,0.1979,0.21,0.1954,0.3373,,,,,,,,,,,,,,,10,0.6446,0.5202,10,644.6,520.2,1.3214,Y,1,Anne?met friends and?Bob?met friends too while?Cindy?wrote?her?thesis.,Bob met friends.
14,46.25,14.5,9,short,Anne,met,friends,and,Bob,met,friends,too,while,Cindy,wrote,her,thesis,,,,,,,,,,,,1.9777,1.8883,2.4036,1.4735,2.1197,0.812,1.0505,1.0331,0.7125,0.6836,1.296,0.6913,2.104,,,,,,,,,,,,,,,10,4.2919,1.8625,10,4291.9,1862.5,2.5634,Y,1,Anne?met friends and?Bob?met friends too while?Cindy?wrote?her?thesis.,Bob met friends.
14,46.25,14.5,14,short,Anne,wrapped,gifts,and,Bob,wrapped,gifts,too,while,Cindy,decorated,the,tree,,,,,,,,,,,,0.8387,1.542,0.8534,0.5425,0.5061,1.1348,0.8519,0.4143,0.8926,0.6381,1.8619,0.6071,0.7992,,,,,,,,,,,,,,,12,2.3954,1.9867,12,2395.4,1986.7,1.6527,N,1,Anne?wrapped gifts and?Bob?wrapped gifts too while?Cindy?decorated the tree.,Bob decorated the tree.
14,46.25,14.5,20,short,Anne,practised,yoga,and,Bob,practised,yoga,too,while,Cindy,was,lifting,weights,,,,,,,,,,,,0.746,0.9361,2.5695,0.4322,0.5344,0.4936,0.5445,0.3743,0.4096,0.4137,0.4918,0.9482,1.4771,,,,,,,,,,,,,,,13,3.5056,1.0381,13,3505.6,1038.1,1.9121,N,1,Anne?practised yoga and?Bob?practised yoga too while?Cindy?was lifting weights.,Cindy practised yoga.
14,46.25,14.5,21,short,Anne,was,late,and,Bob,was,late,too,while,Cindy,asked,for,leave,,,,,,,,,,,,0.7544,0.508,0.8006,0.4688,0.484,0.4468,0.5712,0.3819,0.834,0.4007,0.656,1.3268,3.1292,,,,,,,,,,,,,,,7,1.3086,1.018,7,1308.6,1018,3.7563,Y,1,Anne?was late and?Bob?was late too while?Cindy?asked for leave.,Bob was late.
14,46.25,14.5,22,short,Anne,studied,medicine,and,Bob,studied,medicine,too,whereas,Cindy,became,an,actress,,,,,,,,,,,,0.7717,1.6095,0.7426,0.7063,0.4564,0.7462,0.4434,0.6406,1.8285,0.5683,0.4602,0.4914,1.207,,,,,,,,,,,,,,,15,2.3521,1.1896,15,2352.1,1189.6,1.9241,N,1,Anne?studied medicine and?Bob?studied medicine too whereas?Cindy?became an actress.,Anne became an actress.
14,46.25,14.5,24,short,Anne,brought,wine,and,Bob,brought,wine,too,whereas,Cindy,came,empty,handed,,,,,,,,,,,,0.6511,0.7092,1.7097,0.6728,0.4418,0.7187,1.1937,0.4099,0.4686,0.4267,0.6435,0.7802,1.2308,,,,,,,,,,,,,,,11,2.4189,1.9124,11,2418.9,1912.4,3.4789,N,1,Anne?brought wine and?Bob?brought wine too whereas?Cindy?came empty handed.,Cindy brought wine.
14,46.25,14.5,36,short,Anne,corrected,papers,and,Bob,corrected,papers,too,whereas,Cindy,prepared,English,lessons,,,,,,,,,,,,0.6008,0.3361,1.7225,0.524,0.323,0.2979,1.4318,0.2284,0.5143,0.5353,0.18,1.9329,0.6187,,,,,,,,,,,,,,,15,2.0586,1.7297,15,2058.6,1729.7,2.6045,Y,1,Anne?corrected papers and?Bob?corrected papers too whereas?Cindy?prepared English lessons.,Cindy prepared English lessons.
14,46.25,14.5,42,short,Anne,sold,fruits,and,Bob,sold,fruits,too,while,Cindy,handed,out,booklets,,,,,,,,,,,,0.5153,0.5973,1.3261,0.5719,0.5088,0.6463,0.5422,0.2686,0.3956,0.2412,0.4709,0.4699,3.0333,,,,,,,,,,,,,,,10,1.9234,1.1885,10,1923.4,1188.5,2.8594,Y,1,Anne?sold?fruits?and?Bob?sold?fruits?too while?Cindy?handed out booklets.,Anne sold fruits.
14,46.25,14.5,46,short,Anne,collected,firewood,and,Bob,collected,firewood,too,whereas,Cindy,pitched,the,tent,,,,,,,,,,,,0.5189,1.0919,1.7413,0.4437,0.3088,0.5041,0.3727,0.3559,0.4132,0.5647,1.0645,0.4349,0.7278,,,,,,,,,,,,,,,17,2.8332,0.8768,17,2833.2,876.8,1.7045,N,1,Anne?collected firewood and?Bob?collected firewood too whereas?Cindy?pitched the tent.,Anne pitched the tent.
14,46.25,14.5,51,short,Anne,did,experiments,and,Bob,did,experiments,too,while,Cindy,asked,for,leave,,,,,,,,,,,,0.542,0.4076,1.2888,0.4953,0.3868,0.386,0.5086,0.4024,0.3826,0.2625,0.541,0.5319,2.1445,,,,,,,,,,,,,,,14,1.6964,0.8946,14,1696.4,894.6,3.1828,Y,1,Anne?did experiments and?Bob?did experiments too while?Cindy?asked for leave.,Cindy asked for leave.
14,46.25,14.5,52,short,Anne,celebrated,success,and,Bob,celebrated,success,too,while,Cindy,finished,the,report,,,,,,,,,,,,0.7746,1.004,3.8498,2.0002,0.596,0.6997,0.4733,0.4801,0.4132,0.3871,0.5201,0.4871,0.6932,,,,,,,,,,,,,,,17,4.8538,1.173,17,4853.8,1173,2.637,Y,1,Anne?celebrated success and?Bob?celebrated success too while?Cindy?finished the report.,Bob celebrated success.
14,46.25,14.5,54,short,Anne,climbed,mountains,and,Bob,climbed,mountains,too,whereas,Cindy,was,very,afraid,,,,,,,,,,,,0.5383,1.4487,1.0814,0.3832,0.4663,0.5639,0.4832,0.4224,0.4054,0.4081,0.7967,0.601,2.59,,,,,,,,,,,,,,,16,2.5301,1.0471,16,2530.1,1047.1,2.0847,Y,1,Anne?climbed mountains and?Bob?climbed mountains too whereas?Cindy?was very afraid.,Bob climbed mountains.
14,46.25,14.5,57,short,Anne,browsed,websites,and,Bob,browsed,websites,too,whereas,Cindy,washed,her,clothes,,,,,,,,,,,,0.9924,1.5602,1.3299,1.1322,0.5402,0.6537,0.6017,0.5451,2.5481,0.4343,0.7045,0.7371,2.3613,,,,,,,,,,,,,,,15,2.8901,1.2554,15,2890.1,1255.4,1.7254,N,1,Anne?browsed websites and?Bob?browsed websites too whereas?Cindy?washed?her?clothes.,Anne washed clothes.
14,46.25,14.5,63,short,Anne,skipped,stones,and,Bob,skipped,stones,too,while,Cindy,was,playing,tag,,,,,,,,,,,,0.5069,0.9577,2.4278,0.4837,0.4391,0.4643,0.4955,0.3818,0.4599,0.3531,0.5028,0.7909,1.5835,,,,,,,,,,,,,,,13,3.3855,0.9598,13,3385.5,959.8,3.0295,N,1,Anne?skipped stones and?Bob?skipped stones too while?Cindy?was playing tag.,Anne was playing tag.
14,46.25,14.5,69,short,Anne,produced,music,and,Bob,produced,music,too,whereas,Cindy,adjusted,the,microphone,,,,,,,,,,,,0.4414,1.3082,0.5377,0.4348,0.2266,0.5114,0.344,0.3637,0.3552,0.2584,0.8189,0.5171,2.7154,,,,,,,,,,,,,,,13,1.8459,0.8554,13,1845.9,855.4,2.8226,Y,1,Anne?produced music and?Bob?produced music too whereas?Cindy?adjusted the microphone.,Anne produced music.
14,46.25,14.5,70,short,Anne,gathered,mushrooms,and,Bob,gathered,mushrooms,too,whereas,Cindy,flew,a,kite,,,,,,,,,,,,0.4303,0.208,2.8236,0.4211,0.4325,0.9014,0.6312,0.3767,0.4706,0.3925,0.4269,0.6527,0.6309,,,,,,,,,,,,,,,17,3.0316,1.5326,17,3031.6,1532.6,1.9293,N,1,Anne?gathered mushrooms and?Bob?gathered mushrooms too whereas?Cindy?flew?a kite.,Bob flew a kite.
15,77.5,17.5,7,short,Anne,gathered,mushrooms,and,Bob,gathered,mushrooms,too,whereas,Cindy,flew,a,kite,,,,,,,,,,,,0.5218,3.7699,1.7573,0.4304,0.5106,0.5642,0.5581,0.421,0.5484,0.3092,0.294,0.4412,0.4846,,,,,,,,,,,,,,,17,5.5272,1.1223,17,5527.2,1122.3,11.5502,N,1,Anne?gathered mushrooms and?Bob?gathered mushrooms too whereas?Cindy?flew?a kite.,Bob flew a kite.
15,77.5,17.5,8,short,Anne,produced,music,and,Bob,produced,music,too,whereas,Cindy,adjusted,the,microphone,,,,,,,,,,,,2.0095,1.1333,0.751,0.5601,0.3899,0.5712,0.6857,0.3061,0.4196,0.3077,0.8269,0.5134,1.0594,,,,,,,,,,,,,,,13,1.8843,1.2569,13,1884.3,1256.9,2.349,Y,1,Anne?produced music and?Bob?produced music too whereas?Cindy?adjusted the microphone.,Anne produced music.
15,77.5,17.5,14,short,Anne,skipped,stones,and,Bob,skipped,stones,too,while,Cindy,was,playing,tag,,,,,,,,,,,,0.8729,0.9182,0.8305,0.5136,0.5728,0.628,0.4779,0.5652,0.7334,0.6311,0.4548,0.5219,0.3522,,,,,,,,,,,,,,,13,1.7487,1.1059,13,1748.7,1105.9,1.8015,N,1,Anne?skipped stones and?Bob?skipped stones too while?Cindy?was playing tag.,Anne was playing tag.
15,77.5,17.5,20,short,Anne,browsed,websites,and,Bob,browsed,websites,too,whereas,Cindy,washed,her,clothes,,,,,,,,,,,,0.7359,0.9437,1.2737,0.4086,0.3615,0.6209,0.4702,0.38,0.4184,0.4254,0.5653,0.4605,0.4821,,,,,,,,,,,,,,,15,2.2174,1.0911,15,2217.4,1091.1,1.6539,N,1,Anne?browsed websites and?Bob?browsed websites too whereas?Cindy?washed?her?clothes.,Anne washed clothes.
15,77.5,17.5,23,short,Anne,climbed,mountains,and,Bob,climbed,mountains,too,whereas,Cindy,was,very,afraid,,,,,,,,,,,,0.4668,0.3845,0.5544,0.3751,0.39,0.4643,0.4421,0.3594,0.3672,0.2872,0.3313,0.3655,0.444,,,,,,,,,,,,,,,16,0.9389,0.9064,16,938.9,906.4,4.2573,Y,1,Anne?climbed mountains and?Bob?climbed mountains too whereas?Cindy?was very afraid.,Bob climbed mountains.
15,77.5,17.5,25,short,Anne,celebrated,success,and,Bob,celebrated,success,too,while,Cindy,finished,the,report,,,,,,,,,,,,0.4676,0.7893,0.6686,0.3758,0.4241,0.5142,0.3426,0.3112,0.4116,0.3126,0.2674,0.3585,0.4329,,,,,,,,,,,,,,,17,1.4579,0.8568,17,1457.9,856.8,2.6048,Y,1,Anne?celebrated success and?Bob?celebrated success too while?Cindy?finished the report.,Bob celebrated success.
15,77.5,17.5,26,short,Anne,did,experiments,and,Bob,did,experiments,too,while,Cindy,asked,for,leave,,,,,,,,,,,,0.4678,0.4965,0.7519,0.6512,0.416,0.3739,0.3655,0.2775,1.0959,0.4514,0.3619,0.7126,0.2828,,,,,,,,,,,,,,,14,1.2484,0.7394,14,1248.4,739.4,1.9182,Y,1,Anne?did experiments and?Bob?did experiments too while?Cindy?asked for leave.,Cindy asked for leave.
15,77.5,17.5,31,short,Anne,collected,firewood,and,Bob,collected,firewood,too,whereas,Cindy,pitched,the,tent,,,,,,,,,,,,0.5031,1.1559,0.9446,0.566,0.454,0.5887,0.7262,0.3577,0.4803,0.7446,0.8624,0.4315,1.4272,,,,,,,,,,,,,,,17,2.1005,1.3149,17,2100.5,1314.9,1.886,N,1,Anne?collected firewood and?Bob?collected firewood too whereas?Cindy?pitched the tent.,Anne pitched the tent.
15,77.5,17.5,35,short,Anne,sold,fruits,and,Bob,sold,fruits,too,while,Cindy,handed,out,booklets,,,,,,,,,,,,0.4502,0.5546,1.2664,0.5134,0.4892,0.4021,0.3947,0.3296,0.3384,0.4187,0.3846,0.3601,1.241,,,,,,,,,,,,,,,10,1.821,0.7968,10,1821,796.8,2.2848,Y,1,Anne?sold?fruits?and?Bob?sold?fruits?too while?Cindy?handed out booklets.,Anne sold fruits.
15,77.5,17.5,41,short,Anne,corrected,papers,and,Bob,corrected,papers,too,whereas,Cindy,prepared,English,lessons,,,,,,,,,,,,0.3843,0.2936,1.0874,0.7411,0.354,0.4048,0.2441,0.2403,0.3185,0.189,0.2295,0.5608,0.3546,,,,,,,,,,,,,,,15,1.381,0.6489,15,1381,648.9,1.5697,Y,1,Anne?corrected papers and?Bob?corrected papers too whereas?Cindy?prepared English lessons.,Cindy prepared English lessons.
15,77.5,17.5,53,short,Anne,brought,wine,and,Bob,brought,wine,too,whereas,Cindy,came,empty,handed,,,,,,,,,,,,0.5382,0.2645,0.8439,0.3684,0.473,0.4395,0.3703,0.3142,0.3162,0.2945,0.3769,0.3608,0.4922,,,,,,,,,,,,,,,11,1.1084,0.8098,11,1108.4,809.8,1.5817,N,1,Anne?brought wine and?Bob?brought wine too whereas?Cindy?came empty handed.,Cindy brought wine.
15,77.5,17.5,55,short,Anne,studied,medicine,and,Bob,studied,medicine,too,whereas,Cindy,became,an,actress,,,,,,,,,,,,2.5013,1.8863,1.3762,0.9347,0.3845,0.3767,0.5837,0.4701,0.3231,0.2852,0.299,0.3156,0.2609,,,,,,,,,,,,,,,15,3.2625,0.9604,15,3262.5,960.4,2.1036,N,1,Anne?studied medicine and?Bob?studied medicine too whereas?Cindy?became an actress.,Anne became an actress.
15,77.5,17.5,56,short,Anne,was,late,and,Bob,was,late,too,while,Cindy,asked,for,leave,,,,,,,,,,,,0.4666,0.4147,0.4704,0.4,0.3923,0.3345,0.3752,0.3106,0.3858,0.2981,0.2933,0.352,0.3271,,,,,,,,,,,,,,,7,0.8851,0.7097,7,885.1,709.7,2.0045,Y,1,Anne?was late and?Bob?was late too while?Cindy?asked for leave.,Bob was late.
15,77.5,17.5,57,short,Anne,practised,yoga,and,Bob,practised,yoga,too,while,Cindy,was,lifting,weights,,,,,,,,,,,,0.4234,0.5586,0.5465,0.3905,0.3812,0.4137,0.3162,0.374,0.3104,0.3604,0.4313,0.5362,1.2741,,,,,,,,,,,,,,,13,1.1051,0.7299,13,1105.1,729.9,1.7633,N,1,Anne?practised yoga and?Bob?practised yoga too while?Cindy?was lifting weights.,Cindy practised yoga.
15,77.5,17.5,63,short,Anne,wrapped,gifts,and,Bob,wrapped,gifts,too,while,Cindy,decorated,the,tree,,,,,,,,,,,,0.4626,0.292,0.5981,0.4177,0.3719,0.4974,0.3343,0.2877,0.2981,0.4293,0.6279,0.384,0.7775,,,,,,,,,,,,,,,12,0.8901,0.8317,12,890.1,831.7,1.4307,N,1,Anne?wrapped gifts and?Bob?wrapped gifts too while?Cindy?decorated the tree.,Bob decorated the tree.
15,77.5,17.5,68,short,Anne,met,friends,and,Bob,met,friends,too,while,Cindy,wrote,her,thesis,,,,,,,,,,,,0.4397,0.3437,0.5112,0.2738,0.4254,0.2867,0.286,0.5929,0.4439,0.3615,0.4937,0.4089,0.3519,,,,,,,,,,,,,,,10,0.8549,0.5727,10,854.9,572.7,2.3204,Y,1,Anne?met friends and?Bob?met friends too while?Cindy?wrote?her?thesis.,Bob met friends.
16,80,22,9,short,Anne,met,friends,and,Bob,met,friends,too,while,Cindy,wrote,her,thesis,,,,,,,,,,,,0.4111,0.3372,0.794,0.4253,1.1328,0.606,0.4052,0.346,0.3322,0.3258,0.3105,0.761,0.3778,,,,,,,,,,,,,,,10,1.1312,1.0112,10,1131.2,1011.2,1.3663,Y,1,Anne?met friends and?Bob?met friends too while?Cindy?wrote?her?thesis.,Bob met friends.
16,80,22,14,short,Anne,wrapped,gifts,and,Bob,wrapped,gifts,too,while,Cindy,decorated,the,tree,,,,,,,,,,,,0.2637,1.0203,1.2564,0.7529,0.2909,0.3427,0.3866,0.3289,0.3582,0.3303,0.6907,0.2838,0.3204,,,,,,,,,,,,,,,12,2.2767,0.7293,12,2276.7,729.3,0.9691,N,1,Anne?wrapped gifts and?Bob?wrapped gifts too while?Cindy?decorated the tree.,Bob decorated the tree.
16,80,22,20,short,Anne,practised,yoga,and,Bob,practised,yoga,too,while,Cindy,was,lifting,weights,,,,,,,,,,,,0.3504,0.3186,0.6318,0.4218,0.2823,0.2989,0.3869,0.3389,0.3042,0.253,0.4928,0.501,0.7754,,,,,,,,,,,,,,,13,0.9504,0.6858,13,950.4,685.8,0.9589,N,1,Anne?practised yoga and?Bob?practised yoga too while?Cindy?was lifting weights.,Cindy practised yoga.
16,80,22,21,short,Anne,was,late,and,Bob,was,late,too,while,Cindy,asked,for,leave,,,,,,,,,,,,0.2581,0.3004,0.2613,0.3131,0.2951,0.3036,0.2872,0.3616,0.2489,0.2787,0.2895,0.3319,0.3338,,,,,,,,,,,,,,,7,0.5617,0.5908,7,561.7,590.8,1.0305,Y,1,Anne?was late and?Bob?was late too while?Cindy?asked for leave.,Bob was late.
16,80,22,22,short,Anne,studied,medicine,and,Bob,studied,medicine,too,whereas,Cindy,became,an,actress,,,,,,,,,,,,0.4402,0.4755,0.6074,0.7245,0.3154,0.3445,0.2645,0.2619,0.3137,0.375,0.3156,0.3992,0.6876,,,,,,,,,,,,,,,15,1.0829,0.609,15,1082.9,609,1.0957,N,1,Anne?studied medicine and?Bob?studied medicine too whereas?Cindy?became an actress.,Anne became an actress.
16,80,22,24,short,Anne,brought,wine,and,Bob,brought,wine,too,whereas,Cindy,came,empty,handed,,,,,,,,,,,,0.3253,0.2535,0.5161,0.4305,0.3565,0.3443,0.6777,0.242,0.5444,0.583,0.3895,0.3478,0.5333,,,,,,,,,,,,,,,11,0.7696,1.022,11,769.6,1022,1.0382,N,1,Anne?brought wine and?Bob?brought wine too whereas?Cindy?came empty handed.,Cindy brought wine.
16,80,22,36,short,Anne,corrected,papers,and,Bob,corrected,papers,too,whereas,Cindy,prepared,English,lessons,,,,,,,,,,,,0.2519,0.2628,0.22,0.8886,0.2003,0.4946,0.2604,0.266,0.3257,0.2076,0.2437,0.4114,0.5114,,,,,,,,,,,,,,,15,0.4828,0.755,15,482.8,755,1.0821,Y,1,Anne?corrected papers and?Bob?corrected papers too whereas?Cindy?prepared English lessons.,Cindy prepared English lessons.
16,80,22,42,short,Anne,sold,fruits,and,Bob,sold,fruits,too,while,Cindy,handed,out,booklets,,,,,,,,,,,,0.2231,0.2877,1.1904,0.493,0.4086,0.3733,0.3019,0.2645,0.2774,0.2087,0.2323,0.3339,0.3177,,,,,,,,,,,,,,,10,1.4781,0.6752,10,1478.1,675.2,0.9083,Y,1,Anne?sold?fruits?and?Bob?sold?fruits?too while?Cindy?handed out booklets.,Anne sold fruits.
16,80,22,46,short,Anne,collected,firewood,and,Bob,collected,firewood,too,whereas,Cindy,pitched,the,tent,,,,,,,,,,,,0.222,0.2517,0.2733,0.4916,1.6147,0.5849,0.3467,0.6996,1.1501,0.2948,0.578,0.3291,0.2987,,,,,,,,,,,,,,,17,0.525,0.9316,17,525,931.6,0.7734,N,1,Anne?collected firewood and?Bob?collected firewood too whereas?Cindy?pitched the tent.,Anne pitched the tent.
16,80,22,51,short,Anne,did,experiments,and,Bob,did,experiments,too,while,Cindy,asked,for,leave,,,,,,,,,,,,0.3427,0.287,0.2174,0.4557,0.4281,0.2739,0.2851,0.2402,0.2617,0.2363,0.268,0.2251,0.6731,,,,,,,,,,,,,,,14,0.5044,0.559,14,504.4,559,0.8595,Y,1,Anne?did experiments and?Bob?did experiments too while?Cindy?asked for leave.,Cindy asked for leave.
16,80,22,52,short,Anne,celebrated,success,and,Bob,celebrated,success,too,while,Cindy,finished,the,report,,,,,,,,,,,,0.2958,0.1975,0.4116,0.3186,0.231,0.306,0.2035,0.2335,0.2748,0.2272,0.2149,0.3932,0.3643,,,,,,,,,,,,,,,17,0.6091,0.5095,17,609.1,509.5,1.1994,Y,1,Anne?celebrated success and?Bob?celebrated success too while?Cindy?finished the report.,Bob celebrated success.
16,80,22,54,short,Anne,climbed,mountains,and,Bob,climbed,mountains,too,whereas,Cindy,was,very,afraid,,,,,,,,,,,,0.2399,0.3142,0.2462,0.412,0.2898,0.246,0.2781,0.2303,0.2587,0.2606,0.2631,0.3302,0.2497,,,,,,,,,,,,,,,16,0.5604,0.5241,16,560.4,524.1,1.0832,Y,1,Anne?climbed mountains and?Bob?climbed mountains too whereas?Cindy?was very afraid.,Bob climbed mountains.
16,80,22,57,short,Anne,browsed,websites,and,Bob,browsed,websites,too,whereas,Cindy,washed,her,clothes,,,,,,,,,,,,0.5167,2.5908,0.9714,0.3622,0.3064,0.2761,0.288,0.2767,0.272,0.2663,0.2813,0.3155,0.2694,,,,,,,,,,,,,,,15,3.5622,0.5641,15,3562.2,564.1,0.9044,N,1,Anne?browsed websites and?Bob?browsed websites too whereas?Cindy?washed?her?clothes.,Anne washed clothes.
16,80,22,63,short,Anne,skipped,stones,and,Bob,skipped,stones,too,while,Cindy,was,playing,tag,,,,,,,,,,,,0.4228,0.1894,0.9008,0.2953,0.3296,0.2605,0.2787,0.2202,0.2242,0.2123,0.2294,0.2561,0.29,,,,,,,,,,,,,,,13,1.0902,0.5392,13,1090.2,539.2,0.674,N,1,Anne?skipped stones and?Bob?skipped stones too while?Cindy?was playing tag.,Anne was playing tag.
16,80,22,69,short,Anne,produced,music,and,Bob,produced,music,too,whereas,Cindy,adjusted,the,microphone,,,,,,,,,,,,0.1949,0.2395,0.3214,0.2864,0.2976,0.2763,0.2636,0.2604,0.2241,0.2386,0.54,0.381,0.2611,,,,,,,,,,,,,,,13,0.5609,0.5399,13,560.9,539.9,1.1359,Y,1,Anne?produced music and?Bob?produced music too whereas?Cindy?adjusted the microphone.,Anne produced music.
16,80,22,70,short,Anne,gathered,mushrooms,and,Bob,gathered,mushrooms,too,whereas,Cindy,flew,a,kite,,,,,,,,,,,,0.2113,0.2516,0.2859,0.2783,0.2691,0.2474,0.2384,0.2099,0.266,0.26,0.2742,0.2612,0.2732,,,,,,,,,,,,,,,17,0.5375,0.4858,17,537.5,485.8,0.684,N,1,Anne?gathered mushrooms and?Bob?gathered mushrooms too whereas?Cindy?flew?a kite.,Bob flew a kite.
17,83.5,17.5,7,short,Anne,gathered,mushrooms,and,Bob,gathered,mushrooms,too,whereas,Cindy,flew,a,kite,,,,,,,,,,,,0.9187,0.9226,1.2215,1.0206,0.4915,0.4463,0.6535,0.491,0.6244,0.5108,0.3612,0.4577,0.6811,,,,,,,,,,,,,,,17,2.1441,1.0998,17,2144.1,1099.8,2.6526,N,1,Anne?gathered mushrooms and?Bob?gathered mushrooms too whereas?Cindy?flew?a kite.,Bob flew a kite.
17,83.5,17.5,8,short,Anne,produced,music,and,Bob,produced,music,too,whereas,Cindy,adjusted,the,microphone,,,,,,,,,,,,0.7499,0.5676,0.4796,0.4937,0.4639,0.5742,0.4145,0.4032,0.4992,0.424,0.414,0.4051,1.0279,,,,,,,,,,,,,,,13,1.0472,0.9887,13,1047.2,988.7,2.2115,Y,1,Anne?produced music and?Bob?produced music too whereas?Cindy?adjusted the microphone.,Anne produced music.
17,83.5,17.5,14,short,Anne,skipped,stones,and,Bob,skipped,stones,too,while,Cindy,was,playing,tag,,,,,,,,,,,,0.9829,0.7191,1.6789,0.5016,0.3856,0.425,0.9127,0.8119,0.4745,0.2798,0.404,0.3578,0.3497,,,,,,,,,,,,,,,13,2.398,1.3377,13,2398,1337.7,1.8654,N,1,Anne?skipped stones and?Bob?skipped stones too while?Cindy?was playing tag.,Anne was playing tag.
17,83.5,17.5,20,short,Anne,browsed,websites,and,Bob,browsed,websites,too,whereas,Cindy,washed,her,clothes,,,,,,,,,,,,0.4403,0.6945,0.5623,0.4084,0.4408,0.5368,0.4264,0.3361,0.4901,0.3506,0.3206,0.4291,0.8172,,,,,,,,,,,,,,,15,1.2568,0.9632,15,1256.8,963.2,1.7207,N,1,Anne?browsed websites and?Bob?browsed websites too whereas?Cindy?washed?her?clothes.,Anne washed clothes.
17,83.5,17.5,23,short,Anne,climbed,mountains,and,Bob,climbed,mountains,too,whereas,Cindy,was,very,afraid,,,,,,,,,,,,0.4688,0.7371,0.7709,0.3317,0.3315,0.3676,0.4249,0.3359,0.6026,1.2818,0.4636,0.4035,0.3694,,,,,,,,,,,,,,,16,1.508,0.7925,16,1508,792.5,2.1567,Y,1,Anne?climbed mountains and?Bob?climbed mountains too whereas?Cindy?was very afraid.,Bob climbed mountains.
17,83.5,17.5,25,short,Anne,celebrated,success,and,Bob,celebrated,success,too,while,Cindy,finished,the,report,,,,,,,,,,,,0.5316,1.79,2.1252,1.2425,0.408,0.4885,0.3328,0.3096,0.3859,0.2724,0.3661,0.3191,0.3608,,,,,,,,,,,,,,,17,3.9152,0.8213,17,3915.2,821.3,1.5558,Y,1,Anne?celebrated success and?Bob?celebrated success too while?Cindy?finished the report.,Bob celebrated success.
17,83.5,17.5,26,short,Anne,did,experiments,and,Bob,did,experiments,too,while,Cindy,asked,for,leave,,,,,,,,,,,,0.472,0.4683,0.5463,1.0759,0.3684,0.4109,0.3197,0.2678,0.4069,0.3599,0.875,0.4417,0.4178,,,,,,,,,,,,,,,14,1.0146,0.7306,14,1014.6,730.6,1.5462,Y,1,Anne?did experiments and?Bob?did experiments too while?Cindy?asked for leave.,Cindy asked for leave.
17,83.5,17.5,31,short,Anne,collected,firewood,and,Bob,collected,firewood,too,whereas,Cindy,pitched,the,tent,,,,,,,,,,,,0.421,0.5326,1.0936,0.4412,0.4575,0.486,0.5063,0.4137,0.3871,0.276,0.6098,0.3772,0.8974,,,,,,,,,,,,,,,17,1.6262,0.9923,17,1626.2,992.3,1.7112,N,1,Anne?collected firewood and?Bob?collected firewood too whereas?Cindy?pitched the tent.,Anne pitched the tent.
17,83.5,17.5,35,short,Anne,sold,fruits,and,Bob,sold,fruits,too,while,Cindy,handed,out,booklets,,,,,,,,,,,,0.6726,0.5192,0.8104,0.3604,0.3771,0.3708,0.4258,0.3218,0.3891,0.397,0.4187,0.7448,1.3241,,,,,,,,,,,,,,,10,1.3296,0.7966,10,1329.6,796.6,1.9342,Y,1,Anne?sold?fruits?and?Bob?sold?fruits?too while?Cindy?handed out booklets.,Anne sold fruits.
17,83.5,17.5,41,short,Anne,corrected,papers,and,Bob,corrected,papers,too,whereas,Cindy,prepared,English,lessons,,,,,,,,,,,,0.5501,0.4499,1.6319,0.7567,0.4895,0.5478,0.5211,0.2806,0.404,0.3889,0.4132,0.4999,0.4065,,,,,,,,,,,,,,,15,2.0818,1.0689,15,2081.8,1068.9,2.0129,Y,1,Anne?corrected papers and?Bob?corrected papers too whereas?Cindy?prepared English lessons.,Cindy prepared English lessons.
17,83.5,17.5,53,short,Anne,brought,wine,and,Bob,brought,wine,too,whereas,Cindy,came,empty,handed,,,,,,,,,,,,1.1616,1.1378,0.6803,0.465,0.3336,0.5442,0.5296,0.3631,0.4126,0.3801,0.3236,0.4395,0.5247,,,,,,,,,,,,,,,11,1.8181,1.0738,11,1818.1,1073.8,2.0225,N,1,Anne?brought wine and?Bob?brought wine too whereas?Cindy?came empty handed.,Cindy brought wine.
17,83.5,17.5,55,short,Anne,studied,medicine,and,Bob,studied,medicine,too,whereas,Cindy,became,an,actress,,,,,,,,,,,,0.3659,0.4311,1.3016,0.6051,0.5459,0.4565,0.3441,0.2496,0.2457,0.4117,0.3183,0.358,0.4914,,,,,,,,,,,,,,,15,1.7327,0.8006,15,1732.7,800.6,1.3606,N,1,Anne?studied medicine and?Bob?studied medicine too whereas?Cindy?became an actress.,Anne became an actress.
17,83.5,17.5,56,short,Anne,was,late,and,Bob,was,late,too,while,Cindy,asked,for,leave,,,,,,,,,,,,0.4052,0.3584,0.304,0.3868,0.3153,0.382,0.3112,0.2488,0.2398,0.3186,0.3993,0.3354,0.6581,,,,,,,,,,,,,,,7,0.6624,0.6932,7,662.4,693.2,1.4387,Y,1,Anne?was late and?Bob?was late too while?Cindy?asked for leave.,Bob was late.
17,83.5,17.5,57,short,Anne,practised,yoga,and,Bob,practised,yoga,too,while,Cindy,was,lifting,weights,,,,,,,,,,,,0.4407,0.5102,0.3458,0.4735,0.3037,0.4737,0.3356,0.4092,0.3609,0.2331,0.288,0.3483,0.5775,,,,,,,,,,,,,,,13,0.856,0.8093,13,856,809.3,7.6297,N,1,Anne?practised yoga and?Bob?practised yoga too while?Cindy?was lifting weights.,Cindy practised yoga.
17,83.5,17.5,63,short,Anne,wrapped,gifts,and,Bob,wrapped,gifts,too,while,Cindy,decorated,the,tree,,,,,,,,,,,,0.3734,0.2844,0.7548,0.3548,0.3987,0.573,0.4942,0.2986,0.2195,0.2525,0.3222,0.4575,0.329,,,,,,,,,,,,,,,12,1.0392,1.0672,12,1039.2,1067.2,1.9641,N,1,Anne?wrapped gifts and?Bob?wrapped gifts too while?Cindy?decorated the tree.,Bob decorated the tree.
17,83.5,17.5,68,short,Anne,met,friends,and,Bob,met,friends,too,while,Cindy,wrote,her,thesis,,,,,,,,,,,,0.4027,0.2935,0.4423,0.7624,0.6983,0.4218,0.374,0.2364,0.2444,0.3065,0.334,0.3353,0.3297,,,,,,,,,,,,,,,10,0.7358,0.7958,10,735.8,795.8,1.7169,Y,1,Anne?met friends and?Bob?met friends too while?Cindy?wrote?her?thesis.,Bob met friends.
18,80,18,9,short,Anne,met,friends,and,Bob,met,friends,too,while,Cindy,wrote,her,thesis,,,,,,,,,,,,0.6036,0.4273,0.6889,1.0094,1.4537,0.3864,0.7945,0.4123,0.4745,0.3993,0.5179,0.5516,0.6676,,,,,,,,,,,,,,,10,1.1162,1.1809,10,1116.2,1180.9,1.6804,Y,1,Anne?met friends and?Bob?met friends too while?Cindy?wrote?her?thesis.,Bob met friends.
18,80,18,14,short,Anne,wrapped,gifts,and,Bob,wrapped,gifts,too,while,Cindy,decorated,the,tree,,,,,,,,,,,,0.3556,0.7487,0.5885,0.4455,0.4929,0.5986,0.4453,0.6435,0.3999,0.4743,0.9105,0.5925,0.6569,,,,,,,,,,,,,,,12,1.3372,1.0439,12,1337.2,1043.9,1.5008,N,1,Anne?wrapped gifts and?Bob?wrapped gifts too while?Cindy?decorated the tree.,Bob decorated the tree.
18,80,18,20,short,Anne,practised,yoga,and,Bob,practised,yoga,too,while,Cindy,was,lifting,weights,,,,,,,,,,,,0.3924,0.701,0.6478,0.8442,0.4577,0.8103,0.6722,0.3645,1.0446,0.4903,1.0579,0.63,0.3948,,,,,,,,,,,,,,,13,1.3488,1.4825,13,1348.8,1482.5,1.7068,N,1,Anne?practised yoga and?Bob?practised yoga too while?Cindy?was lifting weights.,Cindy practised yoga.
18,80,18,21,short,Anne,was,late,and,Bob,was,late,too,while,Cindy,asked,for,leave,,,,,,,,,,,,0.4594,0.4489,0.47,0.4403,0.3938,0.383,0.3914,0.4974,0.3834,0.3613,0.5113,0.4636,0.9241,,,,,,,,,,,,,,,7,0.9189,0.7744,7,918.9,774.4,1.0552,Y,1,Anne?was late and?Bob?was late too while?Cindy?asked for leave.,Bob was late.
